time,seconds_elapsed,z,y,x
1766385749423015200,0.09401513671875,0,0,0
1766385749433015000,0.10401513671875,-0.031093597412109375,-0.0004544258117675781,0.010135143995285034
1766385749443015200,0.11401513671875,-0.03205299377441406,-0.011731624603271484,-0.02282962203025818
1766385749453015000,0.12401513671875,0.0033178329467773438,0.0014204978942871094,-0.02584540843963623
1766385749463015200,0.13401513671875,0.03112506866455078,-0.013130426406860352,-0.022238314151763916
1766385749473015000,0.14401513671875,0.06909465789794922,-0.00021195411682128906,-0.038850799202919006
1766385749483015200,0.15401513671875,0.11188125610351562,0.040415287017822266,-0.03071846067905426
1766385749493015000,0.16401513671875,0.10368919372558594,0.047341108322143555,-0.0324878990650177
1766385749503015200,0.17401513671875,0.06959724426269531,0.04686880111694336,-0.02135986089706421
1766385749513015000,0.18401513671875,0.022142410278320312,0.03246259689331055,-0.010760962963104248
1766385749523015200,0.19401513671875,-0.018935203552246094,0.006942272186279297,0.009600311517715454
1766385749533015000,0.20401513671875,-0.080108642578125,-0.009208917617797852,0.021946847438812256
1766385749543015200,0.21401513671875,-0.09981632232666016,-0.05016803741455078,0.013208284974098206
1766385749553015000,0.22401513671875,-0.12067508697509766,-0.02913379669189453,0.030859798192977905
1766385749563015200,0.23401513671875,-0.09120941162109375,0.024538755416870117,0.034019678831100464
1766385749573015000,0.24401513671875,0.0050048828125,0.04676055908203125,0.021528229117393494
1766385749583015200,0.25401513671875,0.0987548828125,-0.00758671760559082,0.0065122246742248535
1766385749593015000,0.26401513671875,0.0688323974609375,-0.05222368240356445,-0.024992555379867554
1766385749603015200,0.27401513671875,0.027373313903808594,-0.05218839645385742,-0.03495760262012482
1766385749613015000,0.28401513671875,-0.00290679931640625,-0.004446983337402344,-0.034680843353271484
1766385749623015200,0.29401513671875,-0.03185558319091797,0.04065108299255371,-0.048767536878585815
1766385749633015000,0.30401513671875,-0.02954864501953125,0.05282139778137207,-0.031695008277893066
1766385749643015200,0.31401513671875,0.034796714782714844,0.05439138412475586,-0.012476414442062378
1766385749653015000,0.32401513671875,0.05101776123046875,0.02776360511779785,0.018768176436424255
1766385749663015200,0.33401513671875,0.044753074645996094,-0.007812976837158203,0.05015535652637482
1766385749673015000,0.34401513671875,0.0052776336669921875,-0.00007987022399902344,0.05528095364570618
1766385749683015200,0.35401513671875,0.03628063201904297,-0.024006128311157227,0.024394497275352478
1766385749693015000,0.36401513671875,0.04818153381347656,-0.04879570007324219,0.0040064603090286255
1766385749703015200,0.37401513671875,0.02010345458984375,-0.04790687561035156,-0.0085076242685318
1766385749713015000,0.38401513671875,-0.006018638610839844,-0.04532194137573242,-0.017847269773483276
1766385749723015200,0.39401513671875,-0.06438827514648438,-0.023645877838134766,-0.034180328249931335
1766385749733015000,0.40401513671875,-0.10294437408447266,-0.009569644927978516,-0.01598304510116577
1766385749743015200,0.41401513671875,-0.09483623504638672,0.0013623237609863281,-0.014154300093650818
1766385749753015000,0.42401513671875,-0.030313491821289062,-0.018164634704589844,-0.033816128969192505
1766385749763015200,0.43401513671875,0.06102275848388672,-0.01313471794128418,-0.013719514012336731
1766385749773015000,0.44401513671875,0.14966773986816406,-0.0046062469482421875,-0.006424754858016968
1766385749783015200,0.45401513671875,0.15660476684570312,0.004938840866088867,-0.0051681846380233765
1766385749793015000,0.46401513671875,0.10941886901855469,-0.015855789184570312,-0.014048725366592407
1766385749803015200,0.47401513671875,0.0043888092041015625,-0.03616642951965332,0.005531534552574158
1766385749813015000,0.48401513671875,-0.06909465789794922,-0.0295560359954834,-0.007370218634605408
1766385749823015200,0.49401513671875,-0.0883493423461914,0.0010433197021484375,0.002566233277320862
1766385749833015000,0.50401513671875,-0.050006866455078125,-0.0014047622680664062,0.014936313033103943
1766385749843015200,0.51401513671875,-0.01728534698486328,-0.03735661506652832,0.02713105082511902
1766385749853015000,0.52401513671875,0.000457763671875,-0.046736717224121094,0.025630027055740356
1766385749863015200,0.53401513671875,-0.015259742736816406,-0.059484004974365234,0.048827141523361206
1766385749873015000,0.54401513671875,-0.05650615692138672,-0.040865421295166016,0.04148983955383301
1766385749883015200,0.55401513671875,-0.015309333801269531,0.012803316116333008,0.031258732080459595
1766385749893015000,0.56401513671875,-0.009815216064453125,0.028844118118286133,0.021049663424491882
1766385749903015200,0.57401513671875,0.002285003662109375,0.023883819580078125,-0.01948477327823639
1766385749913015000,0.58401513671875,0.025732040405273438,0.07089614868164062,-0.034445151686668396
1766385749923015200,0.59401513671875,0.12217330932617188,0.04895782470703125,-0.04609844088554382
1766385749933015000,0.60401513671875,0.12328147888183594,0.006337165832519531,-0.04795756936073303
1766385749943015200,0.61401513671875,0.08560848236083984,-0.043132781982421875,-0.03269076347351074
1766385749953015000,0.62401513671875,0.054019927978515625,-0.03232216835021973,-0.046301648020744324
1766385749963015200,0.63401513671875,-0.014269828796386719,-0.04152369499206543,-0.02255256474018097
1766385749973015000,0.64401513671875,-0.07445144653320312,-0.04041886329650879,0.0031779706478118896
1766385749983015200,0.65401513671875,-0.13929367065429688,-0.08806777000427246,0.005443945527076721
1766385749993015000,0.66401513671875,-0.1399850845336914,-0.04101300239562988,0.017808541655540466
1766385750003015200,0.67401513671875,-0.08913135528564453,-0.009119033813476562,0.022206857800483704
1766385750013015000,0.68401513671875,-0.055495262145996094,0.005708456039428711,0.029959753155708313
1766385750023015200,0.69401513671875,0.001308441162109375,0.04812049865722656,-0.003825947642326355
1766385750033015000,0.70401513671875,0.040312767028808594,0.09562277793884277,-0.0064795613288879395
1766385750043015200,0.71401513671875,0.06501197814941406,0.10019469261169434,-0.007298335433006287
1766385750053015000,0.72401513671875,0.1383523941040039,0.04254937171936035,-0.0029751211404800415
1766385750063015200,0.73401513671875,0.17355060577392578,-0.03144192695617676,0.006120622158050537
1766385750073015000,0.74401513671875,0.1381702423095703,-0.03432130813598633,-0.012883186340332031
1766385750083015200,0.75401513671875,0.054665565490722656,-0.026006698608398438,-0.035189107060432434
1766385750093015000,0.76401513671875,-0.010064125061035156,-0.041249990463256836,-0.034236326813697815
1766385750103015200,0.77401513671875,-0.0952291488647461,-0.04462242126464844,0.0011934638023376465
1766385750113015000,0.78401513671875,-0.16039466857910156,-0.014439821243286133,0.021821215748786926
1766385750123015200,0.79401513671875,-0.22448444366455078,0.00715947151184082,0.010958552360534668
1766385750133015000,0.80401513671875,-0.20150470733642578,0.04039764404296875,-0.0053602904081344604
1766385750143015200,0.81401513671875,-0.06206512451171875,0.08616018295288086,-0.03852446377277374
1766385750153015000,0.82401513671875,0.06559276580810547,0.07567501068115234,-0.044748544692993164
1766385750163015200,0.83401513671875,0.17315196990966797,0.07943582534790039,-0.02956707775592804
1766385750173015000,0.84401513671875,0.23817920684814453,0.030924081802368164,-0.0012740939855575562
1766385750183015200,0.85401513671875,0.21560192108154297,-0.028420448303222656,0.007321029901504517
1766385750193015000,0.86401513671875,0.10538482666015625,-0.05767965316772461,0.012986615300178528
1766385750203015200,0.87401513671875,0.007415771484375,-0.07020854949951172,0.010308131575584412
1766385750213015000,0.88401513671875,-0.0870046615600586,-0.06447649002075195,0.0017011016607284546
1766385750223015200,0.89401513671875,-0.14067649841308594,-0.05611610412597656,0.00032289326190948486
1766385750233015000,0.90401513671875,-0.15880680084228516,-0.04094529151916504,0.02193586528301239
1766385750243015200,0.91401513671875,-0.1496419906616211,-0.03454256057739258,0.02564677596092224
1766385750253015000,0.92401513671875,-0.07967758178710938,-0.011239767074584961,0.008393242955207825
1766385750263015200,0.93401513671875,-0.007466316223144531,0.08474898338317871,-0.018578216433525085
1766385750273015000,0.94401513671875,0.10194873809814453,0.07864761352539062,-0.045784831047058105
1766385750283015200,0.95401513671875,0.12365436553955078,0.006812095642089844,-0.03941705822944641
1766385750293015000,0.96401513671875,0.11596965789794922,-0.03270769119262695,-0.01795072853565216
1766385750303015200,0.97401513671875,0.12877368927001953,-0.009490489959716797,0.022558152675628662
1766385750313015000,0.98401513671875,0.05230998992919922,-0.01679086685180664,0.04772563278675079
1766385750323015200,0.99401513671875,-0.04249382019042969,-0.020394086837768555,0.03071802854537964
1766385750333015000,1.00401513671875,-0.09964847564697266,-0.03165173530578613,-0.013757884502410889
1766385750343015200,1.01401513671875,-0.09676456451416016,-0.04596376419067383,-0.012046009302139282
1766385750353015000,1.02401513671875,-0.06402873992919922,-0.01258540153503418,0.003103494644165039
1766385750363015200,1.03401513671875,-0.040882110595703125,0.009413480758666992,-0.004347607493400574
1766385750373015000,1.04401513671875,0.025339126586914062,0.01881694793701172,-0.020539119839668274
1766385750383015200,1.05401513671875,0.08764171600341797,0.04178810119628906,-0.04233728349208832
1766385750393015000,1.06401513671875,0.13570785522460938,0.034899234771728516,-0.04486539214849472
1766385750403015200,1.07401513671875,0.12335872650146484,0.055533647537231445,-0.032748863101005554
1766385750413015000,1.08401513671875,0.07777214050292969,0.014822721481323242,-0.0007432699203491211
1766385750423015200,1.09401513671875,0.000484466552734375,-0.029385805130004883,0.022346824407577515
1766385750433015000,1.10401513671875,-0.08023262023925781,-0.02503800392150879,0.05369184911251068
1766385750443015200,1.11401513671875,-0.1103525161743164,-0.012577295303344727,0.05450303852558136
1766385750453015000,1.12401513671875,-0.10025691986083984,-0.03777575492858887,0.03633587062358856
1766385750463015200,1.13401513671875,-0.06283950805664062,-0.044325828552246094,0.009486809372901917
1766385750473015000,1.14401513671875,-0.023346900939941406,-0.010796070098876953,-0.0055849552154541016
1766385750483015200,1.15401513671875,0.028913497924804688,0.05878496170043945,-0.019515350461006165
1766385750493015000,1.16401513671875,0.08914470672607422,0.06885361671447754,-0.04990135878324509
1766385750503015200,1.17401513671875,0.0964670181274414,0.04340815544128418,-0.07355654239654541
1766385750513015000,1.18401513671875,0.10336685180664062,-0.011986732482910156,-0.07349441945552826
1766385750523015200,1.19401513671875,0.05029582977294922,-0.027846574783325195,-0.0269773006439209
1766385750533015000,1.20401513671875,-0.008197784423828125,-0.0333709716796875,0.013504579663276672
1766385750543015200,1.21401513671875,-0.04887199401855469,-0.06471037864685059,0.054944247007369995
1766385750553015000,1.22401513671875,-0.02021503448486328,-0.02781987190246582,0.07169483602046967
1766385750563015200,1.23401513671875,0.04163646697998047,-0.0011789798736572266,0.04865993559360504
1766385750573015000,1.24401513671875,0.03182506561279297,-0.006371021270751953,0.01044030487537384
1766385750583015200,1.25401513671875,-0.030274391174316406,-0.008832216262817383,-0.024615749716758728
1766385750593015000,1.26401513671875,-0.02572345733642578,-0.004999876022338867,-0.0447186678647995
1766385750603015200,1.27401513671875,-0.03308677673339844,0.043131351470947266,-0.043577007949352264
1766385750613015000,1.28401513671875,0.026750564575195312,0.07842254638671875,-0.03170250356197357
1766385750623015200,1.29401513671875,0.091522216796875,0.047239065170288086,-0.008763417601585388
1766385750633015000,1.30401513671875,0.06046104431152344,-0.019184112548828125,0.013357743620872498
1766385750643015200,1.31401513671875,0.03562355041503906,-0.010232925415039062,0.023895636200904846
1766385750653015000,1.32401513671875,0.0027761459350585938,0.029470443725585938,0.0334809273481369
1766385750663015200,1.33401513671875,-0.029244422912597656,-0.015903472900390625,0.021068885922431946
1766385750673015000,1.34401513671875,-0.0654144287109375,-0.03862810134887695,0.00787101686000824
1766385750683015200,1.35401513671875,-0.029628753662109375,-0.03980445861816406,-0.006382569670677185
1766385750693015000,1.36401513671875,0.0007886886596679688,-0.030104875564575195,-0.014139220118522644
1766385750703015200,1.37401513671875,0.0043239593505859375,-0.006661653518676758,-0.004544079303741455
1766385750713015000,1.38401513671875,0.04136180877685547,-0.006871461868286133,-0.010185569524765015
1766385750723015200,1.39401513671875,0.0732870101928711,-0.0016164779663085938,-0.02480456233024597
1766385750733015000,1.40401513671875,0.04037952423095703,-0.013710260391235352,-0.0276787132024765
1766385750743015200,1.41401513671875,-0.02364635467529297,0.008986234664916992,-0.016401812434196472
1766385750753015000,1.42401513671875,-0.03472709655761719,0.01325368881225586,-0.011861905455589294
1766385750763015200,1.43401513671875,-0.027933120727539062,0.03528308868408203,0.0042424798011779785
1766385750773015000,1.44401513671875,-0.0034494400024414062,0.0295870304107666,0.01729045808315277
1766385750783015200,1.45401513671875,-0.009822845458984375,0.034950971603393555,0.005199328064918518
1766385750793015000,1.46401513671875,-0.0040798187255859375,0.02674078941345215,-0.009965837001800537
1766385750803015200,1.47401513671875,0.01708984375,0.018262147903442383,-0.023509100079536438
1766385750813015000,1.48401513671875,0.06929874420166016,-0.007723808288574219,-0.013437166810035706
1766385750823015200,1.49401513671875,0.02848052978515625,-0.026485919952392578,0.01835528016090393
1766385750833015000,1.50401513671875,0.010603904724121094,-0.026647567749023438,0.03287768363952637
1766385750843015200,1.51401513671875,-0.012173652648925781,-0.03989362716674805,0.03696198761463165
1766385750853015000,1.52401513671875,-0.04007434844970703,-0.040389060974121094,0.02435392141342163
1766385750863015200,1.53401513671875,-0.05727386474609375,-0.03806900978088379,-0.018135473132133484
1766385750873015000,1.54401513671875,-0.05578899383544922,-0.017540454864501953,-0.04585742950439453
1766385750883015200,1.55401513671875,-0.018095016479492188,0.05231904983520508,-0.04127083718776703
1766385750893015000,1.56401513671875,0.046248435974121094,0.0852668285369873,-0.02725324034690857
1766385750903015200,1.57401513671875,0.08271121978759766,0.0829472541809082,-0.02256976068019867
1766385750913015000,1.58401513671875,0.10179615020751953,0.028597116470336914,0.023213714361190796
1766385750923015200,1.59401513671875,0.034911155700683594,0.013336420059204102,0.03969086706638336
1766385750933015000,1.60401513671875,-0.010659217834472656,-0.0008385181427001953,0.031038567423820496
1766385750943015200,1.61401513671875,-0.01697254180908203,-0.04029965400695801,0.01072770357131958
1766385750953015000,1.62401513671875,-0.0789499282836914,-0.044473886489868164,-0.0007566660642623901
1766385750963015200,1.63401513671875,-0.07692432403564453,-0.027511119842529297,-0.01973840594291687
1766385750973015000,1.64401513671875,-0.020112037658691406,-0.020023822784423828,-0.02503056824207306
1766385750983015200,1.65401513671875,0.005845069885253906,-0.026554346084594727,-0.0045953840017318726
1766385750993015000,1.66401513671875,0.0264129638671875,-0.0011372566223144531,0.014996260404586792
1766385751003015200,1.67401513671875,0.05548381805419922,-0.014486312866210938,0.006976976990699768
1766385751013015000,1.68401513671875,0.08884525299072266,-0.032773494720458984,-0.0017994493246078491
1766385751023015200,1.69401513671875,0.11195182800292969,-0.023946762084960938,0.02095535397529602
1766385751033015000,1.70401513671875,0.12029075622558594,-0.02960801124572754,0.10214729607105255
1766385751043015200,1.71401513671875,0.1224222183227539,-0.06374168395996094,0.08502510190010071
1766385751053015000,1.72401513671875,0.05871009826660156,-0.08205914497375488,0.0769222229719162
1766385751063015200,1.73401513671875,-0.024565696716308594,-0.05787944793701172,0.06378945708274841
1766385751073015000,1.74401513671875,-0.06251049041748047,-0.013021230697631836,0.014512479305267334
1766385751083015200,1.75401513671875,-0.12662887573242188,0.020337820053100586,0.023136422038078308
1766385751093015000,1.76401513671875,-0.05559825897216797,-0.024194955825805664,0.12087421119213104
1766385751103015200,1.77401513671875,0.17903518676757812,-0.08384990692138672,0.22842846810817719
1766385751113015000,1.78401513671875,0.4253406524658203,-0.10625958442687988,0.3195578455924988
1766385751123015200,1.79401513671875,0.5679845809936523,-0.12199926376342773,0.3085702061653137
1766385751133015000,1.80401513671875,0.3498992919921875,-0.10715937614440918,0.2422257512807846
1766385751143015200,1.81401513671875,0.056751251220703125,-0.05805325508117676,0.0760984867811203
1766385751153015000,1.82401513671875,-0.054718017578125,0.07036471366882324,0.07448580861091614
1766385751163015200,1.83401513671875,0.051708221435546875,0.05947732925415039,-0.020802631974220276
1766385751173015000,1.84401513671875,0.022377967834472656,-0.0667874813079834,-0.06728905439376831
1766385751183015200,1.85401513671875,-0.23217391967773438,-0.12827539443969727,-0.15027457475662231
1766385751193015000,1.86401513671875,-0.5082378387451172,-0.10583853721618652,-0.2129383087158203
1766385751203015200,1.87401513671875,-0.5212345123291016,-0.025675535202026367,-0.31010302901268005
1766385751213015000,1.88401513671875,-0.38085079193115234,0.08912014961242676,-0.33295345306396484
1766385751223015200,1.89401513671875,-0.24573612213134766,0.2308669090270996,-0.3118101954460144
1766385751233015000,1.90401513671875,-0.1644306182861328,0.18813443183898926,-0.2919621467590332
1766385751243015200,1.91401513671875,-0.050438880920410156,0.09070444107055664,-0.27433061599731445
1766385751253015000,1.92401513671875,0.09650802612304688,0.09532761573791504,-0.16599690914154053
1766385751263015200,1.93401513671875,0.12216377258300781,0.11695194244384766,0.00023257732391357422
1766385751273015000,1.94401513671875,0.03968524932861328,0.08656072616577148,0.11447324603796005
1766385751283015200,1.95401513671875,0.057946205139160156,-0.026403188705444336,0.12193010747432709
1766385751293015000,1.96401513671875,0.054846763610839844,-0.14014101028442383,0.13925804197788239
1766385751303015200,1.97401513671875,-0.39937400817871094,-0.2535746097564697,0.1899813860654831
1766385751313015000,1.98401513671875,-0.7464828491210938,-0.016257047653198242,-0.1261516511440277
1766385751323015200,1.99401513671875,-0.38939476013183594,0.18236875534057617,-0.23293647170066833
1766385751333015000,2.00401513671875,-0.15726089477539062,0.2050461769104004,-0.05258369445800781
1766385751343015200,2.01401513671875,-0.09724903106689453,0.12947487831115723,0.09292437136173248
1766385751353015000,2.02401513671875,0.15321636199951172,0.053626298904418945,0.09978662431240082
1766385751363015200,2.03401513671875,0.5154314041137695,0.0714421272277832,0.05218440294265747
1766385751373015000,2.04401513671875,0.7227153778076172,0.11113166809082031,0.007648006081581116
1766385751383015200,2.05401513671875,0.7241840362548828,0.07497501373291016,-0.01664625108242035
1766385751393015000,2.06401513671875,0.6326274871826172,0.04044198989868164,0.054900676012039185
1766385751403015200,2.07401513671875,0.16062164306640625,0.07330203056335449,0.1316622495651245
1766385751413015000,2.08401513671875,-0.6410341262817383,0.06457400321960449,-0.0008091479539871216
1766385751423015200,2.09401513671875,-0.9703044891357422,-0.028400659561157227,-0.14425994455814362
1766385751433015000,2.10401513671875,-0.7733335494995117,-0.14881086349487305,-0.1583673059940338
1766385751443015200,2.11401513671875,-0.5413970947265625,-0.22256112098693848,-0.09499400854110718
1766385751453015000,2.12401513671875,-0.19235897064208984,-0.14882564544677734,-0.027666926383972168
1766385751463015200,2.13401513671875,0.31973743438720703,-0.044718265533447266,0.009537383913993835
1766385751473015000,2.14401513671875,0.5635805130004883,0.00014138221740722656,0.07348579913377762
1766385751483015200,2.15401513671875,0.5707426071166992,0.024342060089111328,0.08584106713533401
1766385751493015000,2.16401513671875,0.4991598129272461,0.036551475524902344,0.07432970404624939
1766385751503015200,2.17401513671875,0.3259544372558594,-0.00019884109497070312,-0.000448860228061676
1766385751513015000,2.18401513671875,0.12001895904541016,0.04098153114318848,-0.005577221512794495
1766385751523015200,2.19401513671875,-0.15250873565673828,0.03664231300354004,-0.006375081837177277
1766385751533015000,2.20401513671875,-0.3132200241088867,0.04945993423461914,-0.02403581142425537
1766385751543015200,2.21401513671875,-0.36754417419433594,0.04055309295654297,-0.06315143406391144
1766385751553015000,2.22401513671875,-0.3514442443847656,0.016362667083740234,-0.0709851086139679
1766385751563015200,2.23401513671875,-0.219635009765625,-0.025882244110107422,-0.04622691124677658
1766385751573015000,2.24401513671875,-0.02915668487548828,-0.028955936431884766,0.01530320942401886
1766385751583015200,2.25401513671875,0.0546722412109375,-0.03991341590881348,0.03428701311349869
1766385751593015000,2.26401513671875,0.12213134765625,-0.06152057647705078,0.06484042853116989
1766385751603015200,2.27401513671875,0.18682384490966797,-0.0577845573425293,0.06779130548238754
1766385751613015000,2.28401513671875,0.2426137924194336,0.011431455612182617,0.05136141926050186
1766385751623015200,2.29401513671875,0.2758769989013672,0.07071447372436523,0.04969833046197891
1766385751633015000,2.30401513671875,0.2040424346923828,0.07298159599304199,0.01245070993900299
1766385751643015200,2.31401513671875,0.09190654754638672,0.04912900924682617,-0.032393090426921844
1766385751653015000,2.32401513671875,0.012248039245605469,0.008933067321777344,-0.050904810428619385
1766385751663015200,2.33401513671875,-0.031133651733398438,-0.038822174072265625,-0.005882285535335541
1766385751673015000,2.34401513671875,-0.06527233123779297,-0.09576582908630371,-0.010111004114151001
1766385751683015200,2.35401513671875,-0.06524944305419922,-0.08956074714660645,-0.036084264516830444
1766385751693015000,2.36401513671875,0.0005950927734375,-0.009332656860351562,0.02812144160270691
1766385751703015200,2.37401513671875,0.030791282653808594,-0.016811847686767578,0.052355892956256866
1766385751713015000,2.38401513671875,-0.02430438995361328,-0.034404754638671875,0.054013848304748535
1766385751723015200,2.39401513671875,-0.022507667541503906,0.04950237274169922,0.012199461460113525
1766385751733015000,2.40401513671875,-0.02147388458251953,0.06734561920166016,0.057938672602176666
1766385751743015200,2.41401513671875,0.06787776947021484,0.02449178695678711,-0.011073343455791473
1766385751753015000,2.42401513671875,0.021087646484375,0.03695368766784668,0.04957333952188492
1766385751763015200,2.43401513671875,0.06984901428222656,0.03566765785217285,0.02656375616788864
1766385751773015000,2.44401513671875,0.14629745483398438,0.0010821819305419922,-0.002388015389442444
1766385751783015200,2.45401513671875,0.235107421875,-0.07155227661132812,-0.08044376969337463
1766385751793015000,2.46401513671875,0.1967935562133789,-0.07244563102722168,-0.04212243854999542
1766385751803015200,2.47401513671875,0.007944107055664062,-0.13153505325317383,-0.058873649686574936
1766385751813015000,2.48401513671875,-0.1886434555053711,-0.2189023494720459,-0.10741215944290161
1766385751823015200,2.49401513671875,-0.2943134307861328,-0.20417428016662598,-0.10322549194097519
1766385751833015000,2.50401513671875,-0.22165679931640625,-0.15052032470703125,-0.04522360861301422
1766385751843015200,2.51401513671875,-0.2791023254394531,-0.1262059211730957,0.051276154816150665
1766385751853015000,2.52401513671875,-0.18425846099853516,-0.05776476860046387,0.08841563761234283
1766385751863015200,2.53401513671875,-0.01882648468017578,0.015841007232666016,0.13958388566970825
1766385751873015000,2.54401513671875,0.041042327880859375,0.0234835147857666,0.16554516553878784
1766385751883015200,2.55401513671875,0.1486663818359375,0.01915264129638672,0.09990044683218002
1766385751893015000,2.56401513671875,0.19773006439208984,0.006826877593994141,-0.01833164691925049
1766385751903015200,2.57401513671875,0.053623199462890625,0.05371379852294922,-0.06311625242233276
1766385751913015000,2.58401513671875,0.013334274291992188,0.1343700885772705,-0.05665852874517441
1766385751923015200,2.59401513671875,0.16085338592529297,0.20495986938476562,0.037035711109638214
1766385751933015000,2.60401513671875,-0.059123992919921875,0.10504412651062012,-0.09457451850175858
1766385751943015200,2.61401513671875,-0.2948894500732422,-0.026275157928466797,-0.17602607607841492
1766385751953015000,2.62401513671875,-0.40456485748291016,-0.11684226989746094,-0.18001817166805267
1766385751963015200,2.63401513671875,-0.3631772994995117,-0.08838391304016113,-0.18341310322284698
1766385751973015000,2.64401513671875,-0.3919839859008789,-0.06473112106323242,-0.14880740642547607
1766385751983015200,2.65401513671875,-0.23948955535888672,0.009058713912963867,-0.10045577585697174
1766385751993015000,2.66401513671875,0.015618324279785156,0.14861488342285156,-0.030544817447662354
1766385752003015200,2.67401513671875,0.2098226547241211,0.24836182594299316,0.0973249226808548
1766385752013015000,2.68401513671875,0.21467208862304688,0.42952585220336914,0.40920430421829224
1766385752023015200,2.69401513671875,0.6660795211791992,0.28749799728393555,0.27787885069847107
1766385752033015000,2.70401513671875,0.710270881652832,0.1139225959777832,0.26234158873558044
1766385752043015200,2.71401513671875,0.6236162185668945,-0.03595280647277832,0.16894006729125977
1766385752053015000,2.72401513671875,0.48260974884033203,-0.07195305824279785,-0.19393792748451233
1766385752063015200,2.73401513671875,-0.03430747985839844,0.022185802459716797,-0.16684219241142273
1766385752073015000,2.74401513671875,-0.1533041000366211,0.11646151542663574,-0.13027191162109375
1766385752083015200,2.75401513671875,-0.19100666046142578,0.006888628005981445,-0.031157389283180237
1766385752093015000,2.76401513671875,-0.4491109848022461,-0.06659913063049316,0.04562783241271973
1766385752103015200,2.77401513671875,-0.36294078826904297,-0.051900625228881836,-0.0033855587244033813
1766385752113015000,2.78401513671875,-0.4194345474243164,0.06476593017578125,-0.06883767247200012
1766385752123015200,2.79401513671875,-0.3795642852783203,0.030062198638916016,0.006764650344848633
1766385752133015000,2.80401513671875,0.19118785858154297,-0.2021644115447998,0.017037928104400635
1766385752143015200,2.81401513671875,0.29608917236328125,-0.21440339088439941,0.010475128889083862
1766385752153015000,2.82401513671875,0.0021657943725585938,0.09502315521240234,0.12919718027114868
1766385752163015200,2.83401513671875,-0.14543819427490234,0.23926234245300293,0.10069763660430908
1766385752173015000,2.84401513671875,0.023001670837402344,0.02073502540588379,0.12750431895256042
1766385752183015200,2.85401513671875,-0.08516311645507812,-0.06129813194274902,0.17872294783592224
1766385752193015000,2.86401513671875,-0.259918212890625,-0.12024378776550293,0.024463534355163574
1766385752203015200,2.87401513671875,-0.32639026641845703,-0.026709794998168945,0.06869879364967346
1766385752213015000,2.88401513671875,-0.17377185821533203,-0.1155557632446289,0.041631072759628296
1766385752223015200,2.89401513671875,-0.30407238006591797,-0.041571617126464844,-0.006543084979057312
1766385752233015000,2.90401513671875,-0.27945518493652344,0.03822779655456543,-0.045696333050727844
1766385752243015200,2.91401513671875,-0.06498146057128906,0.03226161003112793,0.01472499966621399
1766385752253015000,2.92401513671875,0.011357307434082031,-0.0380403995513916,0.008766517043113708
1766385752263015200,2.93401513671875,0.10651779174804688,-0.03092789649963379,0.04147064685821533
1766385752273015000,2.94401513671875,0.1729717254638672,-0.09585452079772949,-0.07810132950544357
1766385752283015200,2.95401513671875,0.35097503662109375,0.09053516387939453,-0.015704140067100525
1766385752293015000,2.96401513671875,0.24551963806152344,0.1671152114868164,-0.014666005969047546
1766385752303015200,2.97401513671875,0.5026931762695312,0.148878812789917,-0.016181275248527527
1766385752313015000,2.98401513671875,0.5421218872070312,0.2745625972747803,0.1777491420507431
1766385752323015200,2.99401513671875,0.22565841674804688,-0.05709052085876465,-0.05129203200340271
1766385752333015000,3.00401513671875,-0.06211090087890625,0.04970717430114746,0.08219590783119202
1766385752343015200,3.01401513671875,-0.3871345520019531,-0.017023801803588867,-0.02398720383644104
1766385752353015000,3.02401513671875,-0.41494274139404297,-0.20532989501953125,-0.07672293484210968
1766385752363015200,3.03401513671875,-0.23902320861816406,-0.11759829521179199,0.052244581282138824
1766385752373015000,3.04401513671875,-0.2243175506591797,-0.04671287536621094,0.0007910504937171936
1766385752383015200,3.05401513671875,-0.10666179656982422,-0.02138495445251465,0.018728084862232208
1766385752393015000,3.06401513671875,-0.15691852569580078,-0.20128893852233887,-0.13861620426177979
1766385752403015200,3.07401513671875,0.219268798828125,-0.02946019172668457,0.003542192280292511
1766385752413015000,3.08401513671875,0.5714883804321289,0.3541085720062256,0.07473048567771912
1766385752423015200,3.09401513671875,0.3702888488769531,0.007581472396850586,-0.4659464657306671
1766385752433015000,3.10401513671875,0.4981527328491211,0.24569010734558105,-0.12145669758319855
1766385752443015200,3.11401513671875,0.44090843200683594,0.1151285171508789,-0.08053161203861237
1766385752453015000,3.12401513671875,0.08952617645263672,0.08388471603393555,0.05035174638032913
1766385752463015200,3.13401513671875,-0.24552345275878906,-0.2304236888885498,-0.10286736488342285
1766385752473015000,3.14401513671875,-0.4806804656982422,-0.1413586139678955,0.0146552175283432
1766385752483015200,3.15401513671875,-0.590449333190918,-0.22629451751708984,-0.0060236454010009766
1766385752493015000,3.16401513671875,-0.575434684753418,-0.25803399085998535,0.033487364649772644
1766385752503015200,3.17401513671875,-0.38063621520996094,-0.14366579055786133,0.12895013391971588
1766385752513015000,3.18401513671875,0.03615760803222656,0.01995992660522461,0.23179000616073608
1766385752523015200,3.19401513671875,0.2508687973022461,0.22144246101379395,0.30881360173225403
1766385752533015000,3.20401513671875,0.04618644714355469,-0.08024072647094727,-0.16177092492580414
1766385752543015200,3.21401513671875,0.08776473999023438,0.06381535530090332,-0.08690660446882248
1766385752553015000,3.22401513671875,-0.040114402770996094,0.11482858657836914,-0.1261013150215149
1766385752563015200,3.23401513671875,-0.10017108917236328,0.10779976844787598,-0.10860918462276459
1766385752573015000,3.24401513671875,-0.04143524169921875,-0.06123018264770508,-0.03661036491394043
1766385752583015200,3.25401513671875,0.15212535858154297,-0.010245800018310547,0.13730040192604065
1766385752593015000,3.26401513671875,-0.16737651824951172,-0.1580033302307129,-0.011151924729347229
1766385752603015200,3.27401513671875,-0.0026254653930664062,-0.13437914848327637,0.006985792890191078
1766385752613015000,3.28401513671875,0.10717105865478516,0.0075778961181640625,-0.013059649616479874
1766385752623015200,3.29401513671875,0.057982444763183594,0.023093461990356445,-0.07424235343933105
1766385752633015000,3.30401513671875,0.04495525360107422,0.05988740921020508,-0.09810592234134674
1766385752643015200,3.31401513671875,-0.03919696807861328,0.0870664119720459,-0.08422824740409851
1766385752653015000,3.32401513671875,-0.17054367065429688,0.02341461181640625,-0.05199489742517471
1766385752663015200,3.33401513671875,-0.0020055770874023438,-0.030400991439819336,-0.017385050654411316
1766385752673015000,3.34401513671875,-0.37072277069091797,-0.049160003662109375,0.17106544971466064
1766385752683015200,3.35401513671875,-0.17616844177246094,-0.09591245651245117,0.2520947754383087
1766385752693015000,3.36401513671875,-0.1063232421875,-0.11587834358215332,0.14015786349773407
1766385752703015200,3.37401513671875,0.21807289123535156,0.11563992500305176,0.20503497123718262
1766385752713015000,3.38401513671875,0.18672466278076172,0.04728269577026367,0.008387957699596882
1766385752723015200,3.39401513671875,0.1039896011352539,0.07814764976501465,-0.09797456115484238
1766385752733015000,3.40401513671875,0.08104515075683594,0.04547262191772461,-0.11716952174901962
1766385752743015200,3.41401513671875,-0.07928848266601562,0.015582084655761719,-0.12638749182224274
1766385752753015000,3.42401513671875,-0.11313056945800781,-0.08011794090270996,-0.14342987537384033
1766385752763015200,3.43401513671875,-0.09151840209960938,-0.06350207328796387,-0.1133391261100769
1766385752773015000,3.44401513671875,0.07382583618164062,0.03857064247131348,-0.016319289803504944
1766385752783015200,3.45401513671875,0.20656585693359375,0.12365150451660156,-0.06711605191230774
1766385752793015000,3.46401513671875,0.24100208282470703,0.17281579971313477,-0.13365913927555084
1766385752803015200,3.47401513671875,0.20618534088134766,0.08771657943725586,-0.11583555489778519
1766385752813015000,3.48401513671875,0.09851932525634766,0.04144930839538574,-0.06301248073577881
1766385752823015200,3.49401513671875,-0.10747337341308594,-0.05592036247253418,0.032509658485651016
1766385752833015000,3.50401513671875,-0.23311519622802734,-0.12303829193115234,0.05756021663546562
1766385752843015200,3.51401513671875,-0.21499156951904297,-0.08327651023864746,0.0838572084903717
1766385752853015000,3.52401513671875,-0.14724159240722656,-0.0819845199584961,0.12190130352973938
1766385752863015200,3.53401513671875,0.09918022155761719,-0.013831377029418945,0.08235803246498108
1766385752873015000,3.54401513671875,0.23836708068847656,0.03314828872680664,0.03431418165564537
1766385752883015200,3.55401513671875,0.3245992660522461,0.10544490814208984,-0.017552604898810387
1766385752893015000,3.56401513671875,0.3325614929199219,0.1393439769744873,-0.022037390619516373
1766385752903015200,3.57401513671875,0.11413955688476562,0.05731344223022461,-0.1034424677491188
1766385752913015000,3.58401513671875,-0.07383060455322266,0.014631032943725586,-0.10831528156995773
1766385752923015200,3.59401513671875,-0.16112232208251953,-0.01344442367553711,-0.06495639681816101
1766385752933015000,3.60401513671875,-0.3188295364379883,-0.07885146141052246,-0.0416020005941391
1766385752943015200,3.61401513671875,-0.2568044662475586,-0.08338475227355957,-0.048799045383930206
1766385752953015000,3.62401513671875,-0.18065929412841797,-0.07387280464172363,0.07383734732866287
1766385752963015200,3.63401513671875,0.1339883804321289,-0.010653495788574219,0.21503812074661255
1766385752973015000,3.64401513671875,0.20548725128173828,0.07438802719116211,0.1583019345998764
1766385752983015200,3.65401513671875,0.20393943786621094,0.06840991973876953,0.0816623792052269
1766385752993015000,3.66401513671875,0.10247325897216797,0.032767295837402344,0.006275827530771494
1766385753003015200,3.67401513671875,0.02453899383544922,0.047502994537353516,-0.0734439492225647
1766385753013015000,3.68401513671875,-0.162872314453125,-0.008384227752685547,-0.0778968557715416
1766385753023015200,3.69401513671875,-0.2639942169189453,-0.05194807052612305,-0.0648423507809639
1766385753033015000,3.70401513671875,-0.31805419921875,-0.0738675594329834,0.002078508259728551
1766385753043015200,3.71401513671875,-0.33966732025146484,-0.12247681617736816,-0.07828906923532486
1766385753053015000,3.72401513671875,-0.08422374725341797,-0.08829188346862793,0.04308449476957321
1766385753063015200,3.73401513671875,0.04598426818847656,-0.032822608947753906,0.05766749382019043
1766385753073015000,3.74401513671875,0.3608531951904297,0.14037752151489258,0.06080218404531479
1766385753083015200,3.75401513671875,0.3769254684448242,0.14981985092163086,-0.0049635497853159904
1766385753093015000,3.76401513671875,0.35120105743408203,0.11152410507202148,-0.012193740345537663
1766385753103015200,3.77401513671875,0.13764381408691406,0.035985469818115234,0.007480597123503685
1766385753113015000,3.78401513671875,-0.04685401916503906,-0.02063155174255371,0.0246661938726902
1766385753123015200,3.79401513671875,-0.23883914947509766,-0.14128684997558594,-0.008297585882246494
1766385753133015000,3.80401513671875,-0.2044219970703125,-0.19897937774658203,0.03640998899936676
1766385753143015200,3.81401513671875,0.24621009826660156,-0.05784940719604492,0.20867565274238586
1766385753153015000,3.82401513671875,0.31154727935791016,-0.03447866439819336,0.08740516006946564
1766385753163015200,3.83401513671875,0.5159521102905273,0.16106724739074707,0.07812711596488953
1766385753173015000,3.84401513671875,0.5254440307617188,0.24993896484375,-0.04841313883662224
1766385753183015200,3.85401513671875,0.3715934753417969,0.19608330726623535,-0.1303533911705017
1766385753193015000,3.86401513671875,0.0284271240234375,-0.010196924209594727,-0.11961183696985245
1766385753203015200,3.87401513671875,-0.26436614990234375,-0.025423526763916016,-0.11933545768260956
1766385753213015000,3.88401513671875,-0.4829730987548828,-0.10471773147583008,-0.07602013647556305
1766385753223015200,3.89401513671875,-0.5245094299316406,-0.10631775856018066,-0.03752604126930237
1766385753233015000,3.90401513671875,-0.6282520294189453,-0.2009568214416504,-0.03606611117720604
1766385753243015200,3.91401513671875,-0.23427867889404297,-0.07369613647460938,0.09909947216510773
1766385753253015000,3.92401513671875,0.21149921417236328,0.0219571590423584,0.2048330157995224
1766385753263015200,3.93401513671875,0.38112735748291016,0.03277134895324707,0.1449139416217804
1766385753273015000,3.94401513671875,0.38245201110839844,0.02202916145324707,0.0377674326300621
1766385753283015200,3.95401513671875,0.22873497009277344,0.046518564224243164,-0.05408690497279167
1766385753293015000,3.96401513671875,0.04481983184814453,0.009311676025390625,-0.11244383454322815
1766385753303015200,3.97401513671875,-0.18085289001464844,-0.017520427703857422,-0.0972001701593399
1766385753313015000,3.98401513671875,-0.3399944305419922,-0.10862374305725098,-0.05870592221617699
1766385753323015200,3.99401513671875,-0.4883146286010742,-0.23075151443481445,-0.0696239024400711
1766385753333015000,4.00401513671875,-0.5016326904296875,-0.15966367721557617,-0.09657254815101624
1766385753343015200,4.01401513671875,-0.34459877014160156,-0.05098438262939453,-0.1158379316329956
1766385753353015000,4.02401513671875,-0.06671714782714844,0.022687196731567383,-0.04275351017713547
1766385753363015200,4.03401513671875,0.024811744689941406,0.0892791748046875,-0.05125097930431366
1766385753373015000,4.04401513671875,-0.012558937072753906,0.07126498222351074,-0.17739054560661316
1766385753383015200,4.05401513671875,0.15467357635498047,0.05283236503601074,-0.49051737785339355
1766385753393015000,4.06401513671875,0.6458263397216797,-0.02467632293701172,-0.9810526967048645
1766385753403015200,4.07401513671875,0.9967441558837891,0.11220169067382812,-1.084656000137329
1766385753413015000,4.08401513671875,0.7719850540161133,0.18596816062927246,-0.722089409828186
1766385753423015200,4.09401513671875,0.2813596725463867,0.05549025535583496,-0.23534569144248962
1766385753433015000,4.10401513671875,-0.3893461227416992,-0.18132615089416504,0.15506219863891602
1766385753443015200,4.11401513671875,-0.4715728759765625,-0.3847227096557617,0.3360915780067444
1766385753453015000,4.12401513671875,-0.28537559509277344,-0.2935638427734375,0.7677047848701477
1766385753463015200,4.13401513671875,-0.17459964752197266,-0.33597683906555176,0.719135046005249
1766385753473015000,4.14401513671875,-0.19938087463378906,-0.4342377185821533,0.6080275774002075
1766385753483015200,4.15401513671875,-0.20377826690673828,-0.46924638748168945,0.32646676898002625
1766385753493015000,4.16401513671875,-0.1887950897216797,-0.48160791397094727,0.009045228362083435
1766385753503015200,4.17401513671875,0.07729911804199219,-0.1766202449798584,0.27181941270828247
1766385753513015000,4.18401513671875,0.544438362121582,-0.051287174224853516,0.25843754410743713
1766385753523015200,4.19401513671875,0.8275966644287109,0.49706411361694336,-0.38393691182136536
1766385753533015000,4.20401513671875,0.785456657409668,0.5064864158630371,-0.6626729965209961
1766385753543015200,4.21401513671875,0.48436737060546875,0.22022247314453125,-0.529650866985321
1766385753553015000,4.22401513671875,0.23223400115966797,0.3713550567626953,-0.47919225692749023
1766385753563015200,4.23401513671875,0.0282440185546875,0.5807523727416992,-0.730294942855835
1766385753573015000,4.24401513671875,-0.5199909210205078,0.3290975093841553,-0.7299331426620483
1766385753583015200,4.25401513671875,-0.7383852005004883,-0.1965501308441162,-0.2643803656101227
1766385753593015000,4.26401513671875,-0.6051349639892578,-0.6683938503265381,0.3629792034626007
1766385753603015200,4.27401513671875,0.0076122283935546875,-0.4636087417602539,0.7397104501724243
1766385753613015000,4.28401513671875,0.7809677124023438,-0.325026273727417,1.133792519569397
1766385753623015200,4.29401513671875,1.2829360961914062,-0.0614171028137207,0.7878926992416382
1766385753633015000,4.30401513671875,1.0491247177124023,0.24706792831420898,0.36513274908065796
1766385753643015200,4.31401513671875,0.29489994049072266,0.39611101150512695,0.19611692428588867
1766385753653015000,4.32401513671875,-0.24029159545898438,0.5566246509552002,0.16136199235916138
1766385753663015200,4.33401513671875,-0.31475067138671875,0.550976037979126,-0.07937106490135193
1766385753673015000,4.34401513671875,-0.17424678802490234,0.3612382411956787,0.09342874586582184
1766385753683015200,4.35401513671875,-0.24146270751953125,0.20877742767333984,0.22046750783920288
1766385753693015000,4.36401513671875,-0.37625980377197266,0.014521121978759766,0.4953095316886902
1766385753703015200,4.37401513671875,-0.6980676651000977,-0.37053918838500977,0.6269737482070923
1766385753713015000,4.38401513671875,-0.674138069152832,-0.4149131774902344,0.7333086729049683
1766385753723015200,4.39401513671875,-0.40700435638427734,-0.4355802536010742,1.0759155750274658
1766385753733015000,4.40401513671875,-0.30885791778564453,-0.14783835411071777,1.062943458557129
1766385753743015200,4.41401513671875,-0.3729410171508789,-0.06317400932312012,0.8691493272781372
1766385753753015000,4.42401513671875,-0.1324625015258789,0.28956127166748047,0.47931456565856934
1766385753763015200,4.43401513671875,0.1601238250732422,0.4612572193145752,0.2277669608592987
1766385753773015000,4.44401513671875,0.6748218536376953,0.7273609638214111,-0.06374919414520264
1766385753783015200,4.45401513671875,1.4292325973510742,0.8651714324951172,-0.4784512519836426
1766385753793015000,4.46401513671875,2.2060937881469727,0.8530056476593018,-0.9723130464553833
1766385753803015200,4.47401513671875,2.234951972961426,0.8993594646453857,-1.1752843856811523
1766385753813015000,4.48401513671875,1.5860586166381836,0.6053304672241211,-0.9776546955108643
1766385753823015200,4.49401513671875,0.49050426483154297,0.09079122543334961,-0.4452834129333496
1766385753833015000,4.50401513671875,-0.4511232376098633,-0.3078320026397705,-0.08884936571121216
1766385753843015200,4.51401513671875,-1.0078563690185547,-0.411543607711792,0.0624849796295166
1766385753853015000,4.52401513671875,-0.6189184188842773,-0.22825193405151367,0.23839828372001648
1766385753863015200,4.53401513671875,-0.13669586181640625,-0.2833595275878906,0.058779746294021606
1766385753873015000,4.54401513671875,-0.025308609008789062,-0.5086352825164795,0.3668903112411499
1766385753883015200,4.55401513671875,0.1386394500732422,-1.078664779663086,1.4001591205596924
1766385753893015000,4.56401513671875,-0.09408760070800781,-1.0801832675933838,1.4511241912841797
1766385753903015200,4.57401513671875,-0.2871055603027344,-0.5742852687835693,0.8888434171676636
1766385753913015000,4.58401513671875,-0.45522212982177734,-0.04904937744140625,0.33688241243362427
1766385753923015200,4.59401513671875,-0.9187488555908203,0.24726629257202148,-1.6129660606384277
1766385753933015000,4.60401513671875,-2.307682991027832,0.12902617454528809,-1.3179168701171875
1766385753943015200,4.61401513671875,-2.3926877975463867,0.373640775680542,-1.056849718093872
1766385753953015000,4.62401513671875,-1.7252826690673828,0.26509857177734375,-0.880449116230011
1766385753963015200,4.63401513671875,-1.003366470336914,0.6743431091308594,-0.35543712973594666
1766385753973015000,4.64401513671875,-1.072697639465332,0.28065037727355957,0.6772439479827881
1766385753983015200,4.65401513671875,-0.15156841278076172,0.1623246669769287,0.4499810039997101
1766385753993015000,4.66401513671875,1.1502113342285156,0.6065161228179932,0.5123974084854126
1766385754003015200,4.67401513671875,1.7953786849975586,0.22352981567382812,0.7418171167373657
1766385754013015000,4.68401513671875,2.6410560607910156,0.22198176383972168,1.1962064504623413
1766385754023015200,4.69401513671875,3.091597557067871,-0.03493380546569824,1.9198083877563477
1766385754033015000,4.70401513671875,2.7915191650390625,-0.339526891708374,2.44407320022583
1766385754043015200,4.71401513671875,1.867767333984375,-0.6792711019515991,2.8625917434692383
1766385754053015000,4.72401513671875,0.896571159362793,-0.8459872007369995,3.31972336769104
1766385754063015200,4.73401513671875,-0.5832805633544922,-0.9896584749221802,3.242809534072876
1766385754073015000,4.74401513671875,-1.9168858528137207,-1.17970609664917,2.780669689178467
1766385754083015200,4.75401513671875,-2.781932830810547,-1.311179280281067,2.028430938720703
1766385754093015000,4.76401513671875,-2.6043434143066406,-1.3146538734436035,0.029782891273498535
1766385754103015200,4.77401513671875,-2.021453857421875,-0.61871337890625,-1.6738932132720947
1766385754113015000,4.78401513671875,-1.4349665641784668,-0.10209536552429199,-2.0531980991363525
1766385754123015200,4.79401513671875,-1.128469467163086,0.333343505859375,-1.330540418624878
1766385754133015000,4.80401513671875,-1.0649776458740234,0.3173484802246094,-0.5284621715545654
1766385754143015200,4.81401513671875,-1.3143410682678223,0.16430044174194336,-0.16441679000854492
1766385754153015000,4.82401513671875,-1.56913423538208,-0.1224052906036377,-0.3229776620864868
1766385754163015200,4.83401513671875,-1.4158973693847656,-0.31346631050109863,-0.4870879650115967
1766385754173015000,4.84401513671875,-0.3747415542602539,-0.04463338851928711,-0.8787928819656372
1766385754183015200,4.85401513671875,0.31327056884765625,0.1415247917175293,-2.480320692062378
1766385754193015000,4.86401513671875,-0.03657245635986328,0.5760250091552734,-3.1279358863830566
1766385754203015200,4.87401513671875,-1.0030012130737305,0.5258409976959229,-2.785997152328491
1766385754213015000,4.88401513671875,-1.5929546356201172,0.527848482131958,-2.165602207183838
1766385754223015200,4.89401513671875,-1.7123918533325195,0.4875950813293457,-1.6381738185882568
1766385754233015000,4.90401513671875,-1.24912691116333,-0.34066247940063477,-0.442781925201416
1766385754243015200,4.91401513671875,0.6285438537597656,0.19632911682128906,1.258812427520752
1766385754253015000,4.92401513671875,1.4564342498779297,-0.3025367259979248,1.8021783828735352
1766385754263015200,4.93401513671875,0.8179092407226562,-0.192474365234375,2.355306625366211
1766385754273015000,4.94401513671875,-0.08553409576416016,-0.24637818336486816,1.460371971130371
1766385754283015200,4.95401513671875,-0.8479137420654297,0.21788334846496582,0.13106441497802734
1766385754293015000,4.96401513671875,-1.1771202087402344,0.3345146179199219,-0.44254302978515625
1766385754303015200,4.97401513671875,-0.8258190155029297,0.715893030166626,-0.5160291194915771
1766385754313015000,4.98401513671875,-0.7904186248779297,0.5680890083312988,-0.1733863353729248
1766385754323015200,4.99401513671875,-0.9088783264160156,0.0784308910369873,0.2706143856048584
1766385754333015000,5.00401513671875,-0.6297922134399414,-0.6786906719207764,-0.08645009994506836
1766385754343015200,5.01401513671875,-2.5444068908691406,-1.101525068283081,-1.4415333271026611
1766385754353015000,5.02401513671875,-4.703011512756348,-1.1351866722106934,-2.601078748703003
1766385754363015200,5.03401513671875,-1.8191661834716797,0.007844924926757812,-1.8687107563018799
1766385754373015000,5.04401513671875,1.2043581008911133,-0.18509721755981445,0.12517118453979492
1766385754383015200,5.05401513671875,1.3296241760253906,-0.92930006980896,0.960479736328125
1766385754403015200,5.07401513671875,2.226564407348633,-0.5332443714141846,1.8449764251708984
1766385754413015000,5.08401513671875,2.777371406555176,0.4388923645019531,1.278778314590454
1766385754423015200,5.09401513671875,2.967106819152832,0.9339265823364258,0.7659497261047363
1766385754433015000,5.10401513671875,2.428929328918457,1.1790211200714111,1.1395025253295898
1766385754443015200,5.11401513671875,2.030447006225586,0.9628429412841797,1.6319801807403564
1766385754453015000,5.12401513671875,1.1972789764404297,1.1598656177520752,1.4832446575164795
1766385754463015200,5.13401513671875,-0.8345022201538086,0.4513070583343506,1.1316537857055664
1766385754473015000,5.14401513671875,-2.275332450866699,-0.7039046287536621,0.959134578704834
1766385754483015200,5.15401513671875,-3.143068790435791,-1.9239585399627686,0.5495293140411377
1766385754493015000,5.16401513671875,-2.4916868209838867,-1.4899135828018188,0.09022235870361328
1766385754503015200,5.17401513671875,-1.9343032836914062,-1.3987634181976318,0.7945678234100342
1766385754513015000,5.18401513671875,-1.2850561141967773,-0.7662211656570435,1.6530451774597168
1766385754523015200,5.19401513671875,-0.45331668853759766,-0.5724300146102905,2.0555710792541504
1766385754533015000,5.20401513671875,1.3259334564208984,-0.8384852409362793,2.825669288635254
1766385754543015200,5.21401513671875,0.5642356872558594,1.5239818096160889,3.085449457168579
1766385754553015000,5.22401513671875,0.05756187438964844,2.8911635875701904,3.0350301265716553
1766385754563015200,5.23401513671875,-0.28625011444091797,2.8976616859436035,3.073214054107666
1766385754573015000,5.24401513671875,0.3592529296875,2.514880657196045,2.5516579151153564
1766385754583015200,5.25401513671875,0.4549551010131836,2.293034076690674,1.3916423320770264
1766385754593015000,5.26401513671875,0.8087148666381836,2.594512939453125,0.17206573486328125
1766385754603015200,5.27401513671875,-0.22638797760009766,2.613677740097046,-0.4147040843963623
1766385754613015000,5.28401513671875,-0.8492083549499512,2.490949869155884,-0.7499420642852783
1766385754623015200,5.29401513671875,-1.2349462509155273,2.1766116619110107,-1.241668939590454
1766385754633015000,5.30401513671875,-2.272791862487793,1.0561983585357666,-0.8823027610778809
1766385754643015200,5.31401513671875,-2.434926986694336,-0.2691326141357422,-0.19586467742919922
1766385754653015000,5.32401513671875,-1.0974540710449219,-2.061026096343994,1.4102184772491455
1766385754663015200,5.33401513671875,-0.2813911437988281,0.5790436267852783,-2.975266695022583
1766385754673015000,5.34401513671875,0.6060152053833008,-4.3947434425354,-0.8626799583435059
1766385754683015200,5.35401513671875,-1.5083227157592773,-1.6314623355865479,-1.3707833290100098
1766385754693015000,5.36401513671875,0.7056951522827148,-0.7653052806854248,-3.9812116622924805
1766385754703015200,5.37401513671875,1.8287324905395508,-1.3651127815246582,-5.030004978179932
1766385754713015000,5.38401513671875,1.621474266052246,-1.120697259902954,-4.414040565490723
1766385754723015200,5.39401513671875,1.5411376953125,-0.32887721061706543,-3.584167718887329
1766385754733015000,5.40401513671875,2.034905433654785,0.4366731643676758,-2.877983570098877
1766385754743015200,5.41401513671875,1.9201908111572266,0.5879125595092773,-2.136427879333496
1766385754753015000,5.42401513671875,1.78204345703125,0.38155341148376465,-1.7580690383911133
1766385754763015200,5.43401513671875,1.3280258178710938,0.23064351081848145,-1.6078073978424072
1766385754773015000,5.44401513671875,0.7932567596435547,0.3219277858734131,-1.0909709930419922
1766385754783015200,5.45401513671875,0.9943399429321289,-0.08178472518920898,-0.6915440559387207
1766385754793015000,5.46401513671875,0.9183082580566406,-0.8740987777709961,-0.577683687210083
1766385754803015200,5.47401513671875,0.7817325592041016,-1.3216928243637085,-0.3503091335296631
1766385754813015000,5.48401513671875,0.9997720718383789,-0.9449112415313721,0.05569052696228027
1766385754823015200,5.49401513671875,0.6547403335571289,-0.3015422821044922,0.4690210819244385
1766385754833015000,5.50401513671875,0.35567474365234375,-0.05716419219970703,0.4952200651168823
1766385754843015200,5.51401513671875,-0.48307323455810547,-0.17387127876281738,0.3459343910217285
1766385754853015000,5.52401513671875,-1.4726982116699219,-0.7515885829925537,0.3395174741744995
1766385754863015200,5.53401513671875,-1.5590567588806152,-2.0079097747802734,-0.34700798988342285
1766385754873015000,5.54401513671875,-1.4024829864501953,-4.111380577087402,-1.0938514471054077
1766385754883015200,5.55401513671875,-0.3679075241088867,-5.759936809539795,-1.700812578201294
1766385754893015000,5.56401513671875,0.21126651763916016,-5.1061201095581055,-1.743796467781067
1766385754903015200,5.57401513671875,0.5987358093261719,-3.6603469848632812,-1.4580214023590088
1766385754913015000,5.58401513671875,-0.014033317565917969,-2.814483165740967,-1.355072021484375
1766385754923015200,5.59401513671875,-0.3666391372680664,-1.7353136539459229,-0.9573573470115662
1766385754933015000,5.60401513671875,-0.6200695037841797,-0.9001483917236328,-0.47188591957092285
1766385754943015200,5.61401513671875,-0.35454750061035156,-0.33565735816955566,-0.5553357601165771
1766385754953015000,5.62401513671875,-0.16206073760986328,0.27716922760009766,-0.4036724865436554
1766385754963015200,5.63401513671875,-0.07936382293701172,0.23388099670410156,-0.20064717531204224
1766385754973015000,5.64401513671875,0.9604520797729492,0.03455972671508789,-0.18652544915676117
1766385754983015200,5.65401513671875,1.2770776748657227,-0.1635124683380127,0.39598438143730164
1766385754993015000,5.66401513671875,0.7802019119262695,-0.2837352752685547,1.3254939317703247
1766385755003015200,5.67401513671875,-0.2135791778564453,-0.17244195938110352,1.8499854803085327
1766385755013015000,5.68401513671875,-0.7116098403930664,-0.18217706680297852,1.981778860092163
1766385755023015200,5.69401513671875,-0.22294330596923828,-0.43558216094970703,1.5166540145874023
1766385755033015000,5.70401513671875,0.053946495056152344,0.3272988796234131,0.9943109750747681
1766385755043015200,5.71401513671875,-1.018864631652832,6.499094486236572,2.627079725265503
1766385755053015000,5.72401513671875,1.7845382690429688,0.17609620094299316,-0.026732563972473145
1766385755063015200,5.73401513671875,2.4065122604370117,-1.3207305669784546,-0.6485092639923096
1766385755073015000,5.74401513671875,1.0000085830688477,-0.6548235416412354,-0.6378746032714844
1766385755083015200,5.75401513671875,1.2766799926757812,0.4284849166870117,0.01530417799949646
1766385755093015000,5.76401513671875,1.5035419464111328,1.6809654235839844,1.1121771335601807
1766385755103015200,5.77401513671875,0.9753570556640625,2.7487072944641113,1.9009803533554077
1766385755113015000,5.78401513671875,0.3426666259765625,2.0344395637512207,1.952649712562561
1766385755123015200,5.79401513671875,-0.05955219268798828,1.559518575668335,2.0016937255859375
1766385755133015000,5.80401513671875,0.7162494659423828,0.06610655784606934,2.670081853866577
1766385755143015200,5.81401513671875,1.0419912338256836,0.6741299629211426,2.928048610687256
1766385755153015000,5.82401513671875,1.215353012084961,2.6561431884765625,2.698441743850708
1766385755163015200,5.83401513671875,0.7380523681640625,4.2595415115356445,1.9218708276748657
1766385755173015000,5.84401513671875,0.8394107818603516,4.6943440437316895,0.662421464920044
1766385755183015200,5.85401513671875,1.571305274963379,3.7060351371765137,-0.8044743537902832
1766385755193015000,5.86401513671875,2.3234939575195312,1.8990740776062012,-1.847845435142517
1766385755203015200,5.87401513671875,2.4211673736572266,0.12479567527770996,-2.467090129852295
1766385755213015000,5.88401513671875,2.302058219909668,0.31580328941345215,-2.076101541519165
1766385755223015200,5.89401513671875,1.3212003707885742,1.9189817905426025,-1.3656553030014038
1766385755233015000,5.90401513671875,0.5319805145263672,2.767991542816162,-0.6903940439224243
1766385755243015200,5.91401513671875,-0.09755325317382812,2.298380136489868,0.328709214925766
1766385755253015000,5.92401513671875,-0.3998546600341797,0.9316689968109131,1.831185221672058
1766385755263015200,5.93401513671875,-0.9042129516601562,-0.21983718872070312,2.5378799438476562
1766385755273015000,5.94401513671875,-1.6763343811035156,-0.9924691915512085,2.8417763710021973
1766385755283015200,5.95401513671875,-2.1467742919921875,-1.3803703784942627,2.926741123199463
1766385755293015000,5.96401513671875,-1.9788446426391602,-1.3153555393218994,2.5875887870788574
1766385755303015200,5.97401513671875,-1.7352638244628906,-1.1896629333496094,2.221491813659668
1766385755313015000,5.98401513671875,-1.1790189743041992,-0.8561218976974487,1.4451512098312378
1766385755323015200,5.99401513671875,-0.2050914764404297,-0.22249341011047363,0.7604851722717285
1766385755333015000,6.00401513671875,1.0497493743896484,0.13676667213439941,0.314081072807312
1766385755343015200,6.01401513671875,2.3105764389038086,1.0983929634094238,-0.8858816027641296
1766385755353015000,6.02401513671875,4.829239845275879,1.9532041549682617,-2.934633493423462
1766385755363015200,6.03401513671875,5.94028377532959,2.2895619869232178,-4.25401496887207
1766385755373015000,6.04401513671875,4.7455854415893555,2.3979594707489014,-3.8161733150482178
1766385755383015200,6.05401513671875,2.113903045654297,2.773331642150879,-2.011019229888916
1766385755393015000,6.06401513671875,-4.2790117263793945,3.8198702335357666,0.23829400539398193
1766385755403015200,6.07401513671875,4.25394344329834,2.7729856967926025,0.7815614938735962
1766385755413015000,6.08401513671875,1.948446273803711,1.5970103740692139,1.8743549585342407
1766385755423015200,6.09401513671875,2.0437116622924805,1.205338478088379,1.9263299703598022
1766385755433015000,6.10401513671875,0.9310827255249023,0.8301079273223877,1.5338293313980103
1766385755443015200,6.11401513671875,0.0301666259765625,0.9995083808898926,1.4437623023986816
1766385755453015000,6.12401513671875,-0.7964963912963867,1.4719431400299072,1.6102163791656494
1766385755463015200,6.13401513671875,-1.4661531448364258,2.006161689758301,1.924638271331787
1766385755473015000,6.14401513671875,-1.169525146484375,1.8921353816986084,1.8574540615081787
1766385755483015200,6.15401513671875,-0.8450889587402344,1.4526135921478271,1.7305494546890259
1766385755493015000,6.16401513671875,-0.9349508285522461,0.49132609367370605,1.344752311706543
1766385755503015200,6.17401513671875,-0.73663330078125,-0.4378323554992676,0.8363478779792786
1766385755513015000,6.18401513671875,-0.13166427612304688,-1.4505398273468018,0.1829286515712738
1766385755523015200,6.19401513671875,0.9175643920898438,-1.4121463298797607,-0.3974682688713074
1766385755533015000,6.20401513671875,1.8102102279663086,-0.5411443710327148,-0.7818999290466309
1766385755543015200,6.21401513671875,1.553476333618164,0.35229015350341797,-1.2385103702545166
1766385755553015000,6.22401513671875,2.1419687271118164,1.132636547088623,-1.4365580081939697
1766385755563015200,6.23401513671875,1.6918306350708008,0.9407491683959961,-1.6198883056640625
1766385755573015000,6.24401513671875,1.201395034790039,0.4932522773742676,-1.6331849098205566
1766385755583015200,6.25401513671875,0.7431650161743164,0.18038105964660645,-1.3110814094543457
1766385755593015000,6.26401513671875,0.42563724517822266,-0.2836425304412842,-0.5652474164962769
1766385755603015200,6.27401513671875,-0.20563030242919922,-0.9529314041137695,0.1123969554901123
1766385755613015000,6.28401513671875,-0.7884607315063477,-1.3815338611602783,0.9709873199462891
1766385755623015200,6.29401513671875,-0.9292383193969727,-1.8115813732147217,1.4213124513626099
1766385755633015000,6.30401513671875,-0.7329187393188477,-2.4472432136535645,1.3257298469543457
1766385755643015200,6.31401513671875,-0.8469638824462891,-2.913210868835449,1.0333287715911865
1766385755653015000,6.32401513671875,-1.706451416015625,-3.1090831756591797,1.0195250511169434
1766385755663015200,6.33401513671875,-1.964914321899414,-3.7137041091918945,0.7455569505691528
1766385755673015000,6.34401513671875,-1.7921056747436523,-4.438399791717529,0.34174835681915283
1766385755683015200,6.35401513671875,-1.9716291427612305,-4.891716480255127,0.016450047492980957
1766385755693015000,6.36401513671875,-2.2939491271972656,-4.675472259521484,-0.053514957427978516
1766385755703015200,6.37401513671875,-2.206484317779541,-4.332183361053467,-0.06774771213531494
1766385755713015000,6.38401513671875,-2.0118675231933594,-3.7749972343444824,-0.10452938079833984
1766385755723015200,6.39401513671875,-2.1057090759277344,-2.94482421875,-0.06351542472839355
1766385755733015000,6.40401513671875,-2.4875402450561523,-2.106771469116211,-0.006187558174133301
1766385755743015200,6.41401513671875,-2.761079788208008,-1.2944798469543457,0.01807248592376709
1766385755753015000,6.42401513671875,-2.3978843688964844,-0.892982006072998,-0.07027554512023926
1766385755763015200,6.43401513671875,-2.788701057434082,-0.5501430034637451,-0.06956779956817627
1766385755773015000,6.44401513671875,-3.0201549530029297,-0.1126258373260498,-0.14962613582611084
1766385755783015200,6.45401513671875,-2.151787757873535,-0.22971510887145996,-0.4767320156097412
1766385755793015000,6.46401513671875,-1.6172657012939453,-0.34665608406066895,-0.8211185932159424
1766385755803015200,6.47401513671875,-1.4123954772949219,-0.07500648498535156,-0.853547215461731
1766385755813015000,6.48401513671875,-0.7076301574707031,0.02620863914489746,-0.6607139110565186
1766385755823015200,6.49401513671875,0.5079784393310547,-0.21578478813171387,-0.5468325614929199
1766385755833015000,6.50401513671875,0.9107532501220703,-0.46883583068847656,-0.5339875221252441
1766385755843015200,6.51401513671875,0.3014354705810547,0.45010995864868164,-0.38883185386657715
1766385755853015000,6.52401513671875,-0.6165094375610352,2.612957239151001,0.1302708387374878
1766385755863015200,6.53401513671875,0.40956592559814453,1.2020678520202637,0.47094905376434326
1766385755873015000,6.54401513671875,0.11875247955322266,0.10763168334960938,0.8492645621299744
1766385755883015200,6.55401513671875,-0.013730049133300781,0.3122560977935791,1.1436086893081665
1766385755893015000,6.56401513671875,0.30281639099121094,0.779217004776001,0.7199740409851074
1766385755903015200,6.57401513671875,1.054922103881836,0.8137640953063965,0.2188509702682495
1766385755913015000,6.58401513671875,0.9011898040771484,0.5950198173522949,0.03905677795410156
1766385755923015200,6.59401513671875,0.7286052703857422,1.1066005229949951,-0.16230309009552002
1766385755933015000,6.60401513671875,0.8920116424560547,1.8568003177642822,-0.5535741448402405
1766385755943015200,6.61401513671875,-0.8438835144042969,5.108794212341309,-0.3709222674369812
1766385755953015000,6.62401513671875,-0.9976415634155273,6.01594352722168,0.32339975237846375
1766385755963015200,6.63401513671875,1.327162742614746,1.6851797103881836,0.8145966529846191
1766385755973015000,6.64401513671875,0.7234420776367188,0.8285572528839111,1.805819034576416
1766385755983015200,6.65401513671875,1.3240327835083008,0.7146720886230469,2.2855968475341797
1766385755993015000,6.66401513671875,1.3500871658325195,1.1175355911254883,2.2634801864624023
1766385756003015200,6.67401513671875,1.3886499404907227,1.4558234214782715,1.9032235145568848
1766385756013015000,6.68401513671875,1.3016471862792969,1.9900050163269043,1.3473241329193115
1766385756023015200,6.69401513671875,1.2385883331298828,1.342411756515503,1.1777503490447998
1766385756033015000,6.70401513671875,0.5784025192260742,-0.23395895957946777,1.3729135990142822
1766385756043015200,6.71401513671875,0.4632606506347656,-1.4271422624588013,1.7096245288848877
1766385756053015000,6.72401513671875,0.6075868606567383,-1.7189314365386963,1.7053263187408447
1766385756063015200,6.73401513671875,1.1548776626586914,-1.6742219924926758,1.2146284580230713
1766385756073015000,6.74401513671875,1.5896949768066406,-1.5817945003509521,0.6364046335220337
1766385756083015200,6.75401513671875,1.6047115325927734,-1.1057897806167603,0.2774643301963806
1766385756093015000,6.76401513671875,1.0360288619995117,-0.21479368209838867,-0.05190539360046387
1766385756103015200,6.77401513671875,0.9110116958618164,-0.11990499496459961,-0.4234832525253296
1766385756113015000,6.78401513671875,0.7840690612792969,-0.8224563598632812,-0.6471182107925415
1766385756123015200,6.79401513671875,0.7475385665893555,-1.796441912651062,-0.20628339052200317
1766385756133015000,6.80401513671875,0.4497041702270508,-1.8832643032073975,-0.06664174795150757
1766385756143015200,6.81401513671875,0.49642276763916016,-1.4306660890579224,-0.44108861684799194
1766385756153015000,6.82401513671875,0.1895914077758789,-0.7413953542709351,-0.9184842109680176
1766385756163015200,6.83401513671875,-0.059647560119628906,0.4314582347869873,-1.9161486625671387
1766385756173015000,6.84401513671875,0.2781076431274414,1.0890607833862305,-3.146096706390381
1766385756183015200,6.85401513671875,0.8276386260986328,0.8769214153289795,-3.509552001953125
1766385756193015000,6.86401513671875,1.5095643997192383,0.23660588264465332,-2.8899502754211426
1766385756203015200,6.87401513671875,2.142618179321289,-0.6311683654785156,-1.9884675741195679
1766385756213015000,6.88401513671875,2.47054386138916,-1.319089651107788,-1.5129005908966064
1766385756223015200,6.89401513671875,2.22554874420166,-1.5132112503051758,-1.1105700731277466
1766385756233015000,6.90401513671875,1.6143426895141602,-1.467343807220459,-1.0641978979110718
1766385756243015200,6.91401513671875,1.1503324508666992,-1.2789150476455688,-1.0709201097488403
1766385756253015000,6.92401513671875,-0.10015201568603516,0.3805990219116211,-0.7280079126358032
1766385756263015200,6.93401513671875,-2.213479518890381,5.806859970092773,0.0368802547454834
1766385756273015000,6.94401513671875,1.1026363372802734,0.5089244842529297,-0.3434743881225586
1766385756283015200,6.95401513671875,1.0874500274658203,-1.277604341506958,0.4695887565612793
1766385756293015000,6.96401513671875,0.6187419891357422,-1.4034082889556885,0.722407877445221
1766385756303015200,6.97401513671875,0.6341533660888672,-2.313544511795044,0.975299596786499
1766385756313015000,6.98401513671875,0.74072265625,-3.4812183380126953,1.0027779340744019
1766385756323015200,6.99401513671875,-0.1258983612060547,0.2413957118988037,1.180018663406372
1766385756333015000,7.00401513671875,-0.16566944122314453,1.515974521636963,0.4932669401168823
1766385756343015200,7.01401513671875,0.6303977966308594,-0.6686010360717773,0.1282033920288086
1766385756353015000,7.02401513671875,-0.9102153778076172,1.62850022315979,0.3075920343399048
1766385756363015200,7.03401513671875,-0.7329416275024414,1.5762183666229248,-0.2296156883239746
1766385756373015000,7.04401513671875,-0.17316341400146484,0.8633260726928711,-0.4249410629272461
1766385756383015200,7.05401513671875,-0.2719717025756836,1.9399864673614502,-0.4527900218963623
1766385756393015000,7.06401513671875,0.14261531829833984,2.4327824115753174,-0.4996223449707031
1766385756403015200,7.07401513671875,0.7595386505126953,0.8522953987121582,-0.3018960952758789
1766385756413015000,7.08401513671875,0.576411247253418,-0.08434486389160156,-0.047934532165527344
1766385756423015200,7.09401513671875,0.10614395141601562,-0.2303154468536377,0.15410900115966797
1766385756433015000,7.10401513671875,-0.11365509033203125,-0.8892717361450195,0.5520944595336914
1766385756443015200,7.11401513671875,-0.0738363265991211,-0.9914474487304688,1.017836570739746
1766385756453015000,7.12401513671875,0.42128753662109375,-1.17155122756958,0.8909454345703125
1766385756463015200,7.13401513671875,0.8471317291259766,-1.9955394268035889,0.968880295753479
1766385756473015000,7.14401513671875,1.2765235900878906,-2.325939416885376,0.6768980026245117
1766385756483015200,7.15401513671875,1.6248769760131836,-2.2695302963256836,0.29253244400024414
1766385756493015000,7.16401513671875,1.4016666412353516,-1.7993276119232178,-0.08472108840942383
1766385756503015200,7.17401513671875,1.143782615661621,-0.8699233531951904,-0.8539605140686035
1766385756513015000,7.18401513671875,0.6297140121459961,0.016417980194091797,-1.212738275527954
1766385756523015200,7.19401513671875,0.20589160919189453,0.45024609565734863,-0.8857691287994385
1766385756533015000,7.20401513671875,0.6673145294189453,0.19212722778320312,-0.49558138847351074
1766385756543015200,7.21401513671875,0.9913711547851562,-0.4424457550048828,0.0941019058227539
1766385756553015000,7.22401513671875,1.502955436706543,-1.3853845596313477,0.45485806465148926
1766385756563015200,7.23401513671875,1.563389778137207,-2.3256146907806396,0.35696935653686523
1766385756573015000,7.24401513671875,1.3870172500610352,-3.1118154525756836,-0.08735346794128418
1766385756583015200,7.25401513671875,1.390488624572754,-3.55422306060791,-0.9102859497070312
1766385756593015000,7.26401513671875,0.5558075904846191,-3.4537112712860107,-1.0125365257263184
1766385756603015200,7.27401513671875,-0.1580977439880371,-2.955718517303467,-0.5129780769348145
1766385756613015000,7.28401513671875,-0.04982328414916992,-2.1799511909484863,-0.44524073600769043
1766385756623015200,7.29401513671875,-0.6043648719787598,0.2340245246887207,-0.046562910079956055
1766385756633015000,7.30401513671875,-2.009645462036133,2.1989402770996094,0.2866172790527344
1766385756643015200,7.31401513671875,-2.402684211730957,1.8496251106262207,0.5673911571502686
1766385756653015000,7.32401513671875,-2.342843532562256,0.7968206405639648,0.9333236217498779
1766385756663015200,7.33401513671875,-1.8014616966247559,-0.4420595169067383,1.001779556274414
1766385756673015000,7.34401513671875,-1.3373832702636719,-1.4720783233642578,0.5309197902679443
1766385756683015200,7.35401513671875,-0.7740945816040039,-1.1855297088623047,0.6897122859954834
1766385756693015000,7.36401513671875,-0.9445295333862305,-0.42128658294677734,1.2733334302902222
1766385756703015200,7.37401513671875,-1.326859951019287,-0.601259708404541,1.5347399711608887
1766385756713015000,7.38401513671875,-1.2710137367248535,-1.411381721496582,1.1985063552856445
1766385756723015200,7.39401513671875,-0.4931621551513672,-2.5811266899108887,0.6430764198303223
1766385756733015000,7.40401513671875,1.3721227645874023,-3.2029809951782227,-0.4341299533843994
1766385756743015200,7.41401513671875,2.7729601860046387,-1.7776451110839844,-2.761213779449463
1766385756753015000,7.42401513671875,2.58902645111084,1.0714406967163086,-3.965569496154785
1766385756763015200,7.43401513671875,1.3789944648742676,3.2361321449279785,-3.6693737506866455
1766385756773015000,7.44401513671875,0.023113250732421875,4.21544075012207,-2.982358455657959
1766385756783015200,7.45401513671875,-1.1274223327636719,3.915405750274658,-2.073826313018799
1766385756793015000,7.46401513671875,-1.983079433441162,3.082789421081543,-0.6865966320037842
1766385756803015200,7.47401513671875,-2.511904239654541,2.1478538513183594,0.9249050617218018
1766385756813015000,7.48401513671875,-2.8546600341796875,1.2364578247070312,2.616049289703369
1766385756823015200,7.49401513671875,-3.051708698272705,0.37482738494873047,3.966510534286499
1766385756833015000,7.50401513671875,-2.9272193908691406,0.03115224838256836,4.611664772033691
1766385756843015200,7.51401513671875,-3.2743096351623535,0.8644275665283203,5.408759593963623
1766385756853015000,7.52401513671875,-3.9141077995300293,2.5963287353515625,5.929896354675293
1766385756863015200,7.53401513671875,-4.409609317779541,4.282954692840576,6.09649658203125
1766385756873015000,7.54401513671875,-4.65714168548584,5.724705219268799,5.940300464630127
1766385756883015200,7.55401513671875,-4.238124370574951,6.694675445556641,4.731746673583984
1766385756913015000,7.58401513671875,-0.5348305702209473,4.217436790466309,2.0796327590942383
1766385756923015200,7.59401513671875,3.4823360443115234,-1.426126480102539,3.3826839923858643
1766385756933015000,7.60401513671875,0.6425185203552246,-2.1177773475646973,3.856358289718628
1766385756953015000,7.62401513671875,0.5118989944458008,-2.013364315032959,-2.291365385055542
1766385756963015200,7.63401513671875,-0.6247491836547852,-1.4819252490997314,-3.3758959770202637
1766385756973015000,7.64401513671875,-1.1980619430541992,-0.3961014747619629,-3.184819221496582
1766385756983015200,7.65401513671875,-1.005105972290039,-0.8376200199127197,-2.8241477012634277
1766385756993015000,7.66401513671875,-0.7249369621276855,-0.8508415222167969,-2.7350499629974365
1766385757003015200,7.67401513671875,-0.27133703231811523,-0.6399505138397217,-2.752204418182373
1766385757013015000,7.68401513671875,0.6428160667419434,-0.8995516300201416,-2.626877784729004
1766385757023015200,7.69401513671875,0.9559793472290039,-1.1478710174560547,-1.9282078742980957
1766385757033015000,7.70401513671875,0.7894587516784668,-1.1122260093688965,-0.9711649417877197
1766385757043015200,7.71401513671875,0.9279618263244629,-1.3001174926757812,-0.5654709339141846
1766385757053015000,7.72401513671875,0.8329339027404785,-1.6774296760559082,-0.5346286296844482
1766385757063015200,7.73401513671875,0.380948543548584,-1.9025661945343018,-0.6333386898040771
1766385757073015000,7.74401513671875,-0.22072219848632812,-1.8404231071472168,-0.7083530426025391
1766385757083015200,7.75401513671875,-0.5262651443481445,-1.6932063102722168,-0.8006854057312012
1766385757093015000,7.76401513671875,-0.5725083351135254,-1.5946886539459229,-0.6556379795074463
1766385757103015200,7.77401513671875,-0.236480712890625,-1.552314281463623,-0.37591004371643066
1766385757113015000,7.78401513671875,0.20071697235107422,-1.6099014282226562,-0.025300264358520508
1766385757133015000,7.80401513671875,0.7005248069763184,-1.515697956085205,0.6283175945281982
1766385757143015200,7.81401513671875,0.9359102249145508,-1.4941902160644531,0.6745789051055908
1766385757153015000,7.82401513671875,1.5324597358703613,-1.9728431701660156,0.2959256172180176
1766385757163015200,7.83401513671875,1.6990256309509277,-2.2367911338806152,-0.05359530448913574
1766385757173015000,7.84401513671875,1.450120449066162,-1.9868850708007812,-0.2954723834991455
1766385757183015200,7.85401513671875,1.2732882499694824,-1.4575552940368652,-0.536078691482544
1766385757193015000,7.86401513671875,1.1023964881896973,-0.9645695686340332,-0.7012856006622314
1766385757203015200,7.87401513671875,1.056185245513916,-0.579564094543457,-0.7793686389923096
1766385757213015000,7.88401513671875,0.992457389831543,-0.0482025146484375,-0.6236653327941895
1766385757223015200,7.89401513671875,0.833221435546875,0.6239490509033203,-0.3591132164001465
1766385757233015000,7.90401513671875,0.7370948791503906,1.081130027770996,-0.2917511463165283
1766385757243015200,7.91401513671875,0.7556533813476562,1.4679608345031738,-0.41988444328308105
1766385757253015000,7.92401513671875,0.5632290840148926,1.651522159576416,-0.5636143684387207
1766385757263015200,7.93401513671875,0.36691761016845703,1.7431278228759766,-0.5670230388641357
1766385757273015000,7.94401513671875,0.19375371932983398,1.7430920600891113,-0.41651034355163574
1766385757283015200,7.95401513671875,0.0885624885559082,1.5617289543151855,-0.22670626640319824
1766385757293015000,7.96401513671875,-0.05026435852050781,1.3388099670410156,0.09108471870422363
1766385757303015200,7.97401513671875,-0.28659629821777344,1.08811616897583,0.3951559066772461
1766385757313015000,7.98401513671875,-0.4512810707092285,0.6311068534851074,0.549290657043457
1766385757323015200,7.99401513671875,-0.7384343147277832,0.15821027755737305,0.6439130306243896
1766385757333015000,8.00401513671875,-1.0053954124450684,-0.27573251724243164,0.7801117897033691
1766385757343015200,8.01401513671875,-0.9999651908874512,-0.5848102569580078,0.8580408096313477
1766385757353015000,8.02401513671875,-0.8652610778808594,-0.8633112907409668,0.8402600288391113
1766385757363015200,8.03401513671875,-0.6648879051208496,-0.9856839179992676,0.8446640968322754
1766385757373015000,8.04401513671875,-0.08414459228515625,-1.0916123390197754,0.8963925838470459
1766385757383015200,8.05401513671875,0.5133762359619141,-0.8439292907714844,0.8397057056427002
1766385757393015000,8.06401513671875,0.6950893402099609,0.4706850051879883,0.9083123207092285
1766385757403015200,8.07401513671875,0.7707877159118652,2.0662670135498047,0.752284049987793
1766385757413015000,8.08401513671875,0.8945126533508301,1.9238958358764648,0.07859420776367188
1766385757423015200,8.09401513671875,0.8354949951171875,0.0429682731628418,-0.44801807403564453
1766385757433015000,8.10401513671875,0.2901482582092285,-0.6490583419799805,-0.5930964946746826
1766385757443015200,8.11401513671875,-0.027349472045898438,-0.7246155738830566,-0.3314204216003418
1766385757453015000,8.12401513671875,-0.14856338500976562,-0.7478156089782715,0.03003239631652832
1766385757463015200,8.13401513671875,0.11135530471801758,-0.8373312950134277,0.29461121559143066
1766385757473015000,8.14401513671875,0.6388025283813477,-0.7784104347229004,0.20253324508666992
1766385757483015200,8.15401513671875,0.961493968963623,-0.19886159896850586,0.00408935546875
1766385757493015000,8.16401513671875,1.2944951057434082,0.8130364418029785,-0.23812198638916016
1766385757503015200,8.17401513671875,0.8968420028686523,1.6516227722167969,-0.43683743476867676
1766385757513015000,8.18401513671875,0.1648569107055664,2.0013208389282227,-0.4778127670288086
1766385757523015200,8.19401513671875,-0.4140634536743164,1.7088932991027832,-0.39531660079956055
1766385757533015000,8.20401513671875,-0.8277792930603027,1.029390811920166,-0.28395819664001465
1766385757543015200,8.21401513671875,-1.0878286361694336,0.4413766860961914,-0.204986572265625
1766385757553015000,8.22401513671875,-1.1806960105895996,-0.02414083480834961,-0.15369462966918945
1766385757563015200,8.23401513671875,-1.2382807731628418,-0.4465065002441406,-0.005868196487426758
1766385757573015000,8.24401513671875,-1.0069208145141602,-0.8711156845092773,-0.06382060050964355
1766385757583015200,8.25401513671875,-0.7695860862731934,-1.1446328163146973,-0.19610905647277832
1766385757593015000,8.26401513671875,-0.7078289985656738,-1.0980720520019531,-0.1974947452545166
1766385757603015200,8.27401513671875,-0.37067747116088867,-0.787276029586792,-0.38906264305114746
1766385757613015000,8.28401513671875,-0.11299705505371094,-0.4082202911376953,-0.5097043514251709
1766385757623015200,8.29401513671875,-0.12095355987548828,-0.20105266571044922,-0.5226354598999023
1766385757633015000,8.30401513671875,-0.2802591323852539,-0.33667659759521484,-0.3945455551147461
1766385757643015200,8.31401513671875,-0.3692770004272461,-0.840238094329834,-0.3042917251586914
1766385757653015000,8.32401513671875,-0.4548015594482422,-0.9723567962646484,-0.16460657119750977
1766385757663015200,8.33401513671875,-0.4122285842895508,-0.9351615905761719,-0.05782604217529297
1766385757673015000,8.34401513671875,-0.2325887680053711,-1.0606060028076172,-0.30392932891845703
1766385757683015200,8.35401513671875,-0.042249202728271484,-1.0359649658203125,-0.447800874710083
1766385757693015000,8.36401513671875,0.11290168762207031,-0.937263011932373,-0.662853479385376
1766385757703015200,8.37401513671875,0.25966501235961914,-0.7871971130371094,-0.6517374515533447
1766385757713015000,8.38401513671875,0.2664051055908203,-0.5034642219543457,-0.6494266986846924
1766385757723015200,8.39401513671875,0.27200794219970703,-0.11755704879760742,-0.5369472503662109
1766385757733015000,8.40401513671875,0.36380624771118164,-0.13911199569702148,-0.3756556510925293
1766385757743015200,8.41401513671875,0.46848344802856445,-0.46358394622802734,-0.2719273567199707
1766385757753015000,8.42401513671875,0.42197704315185547,-0.7553009986877441,-0.367875337600708
1766385757763015200,8.43401513671875,0.22813987731933594,-0.7667131423950195,-0.6327645778656006
1766385757773015000,8.44401513671875,-0.01228952407836914,-0.6222119331359863,-1.073641061782837
1766385757783015200,8.45401513671875,-0.1908402442932129,-0.5685691833496094,-1.5889935493469238
1766385757793015000,8.46401513671875,-0.45212888717651367,-0.6842179298400879,-2.0135507583618164
1766385757803015200,8.47401513671875,0.05371379852294922,-1.0560235977172852,-2.195849895477295
1766385757813015000,8.48401513671875,0.6941308975219727,-1.6895675659179688,-2.308393716812134
1766385757823015200,8.49401513671875,1.2163286209106445,-2.0766475200653076,-1.9291539192199707
1766385757833015000,8.50401513671875,1.45936918258667,-2.3542494773864746,-1.2750358581542969
1766385757843015200,8.51401513671875,1.2617268562316895,-2.4649550914764404,-0.74959397315979
1766385757853015000,8.52401513671875,0.6865072250366211,-2.525576591491699,-0.17052435874938965
1766385757863015200,8.53401513671875,-0.1093587875366211,-2.5683107376098633,0.27790355682373047
1766385757873015000,8.54401513671875,-0.916743278503418,-2.4890003204345703,0.5479850769042969
1766385757883015200,8.55401513671875,-1.0152931213378906,-2.680758476257324,0.6561830043792725
1766385757893015000,8.56401513671875,-1.3252978324890137,-2.5152835845947266,1.055356740951538
1766385757903015200,8.57401513671875,-1.7465224266052246,-2.3031344413757324,1.325101375579834
1766385757913015000,8.58401513671875,-1.6686983108520508,-2.1770243644714355,1.3544998168945312
1766385757923015200,8.59401513671875,-1.1553020477294922,-1.7412614822387695,1.8029824495315552
1766385757933015000,8.60401513671875,-1.0628223419189453,-1.1805968284606934,2.1517457962036133
1766385757943015200,8.61401513671875,-0.8203926086425781,-0.9090971946716309,2.1699788570404053
1766385757953015000,8.62401513671875,-0.3679180145263672,-0.917452335357666,1.9956161975860596
1766385757963015200,8.63401513671875,-0.09859848022460938,-1.0361628532409668,1.8417754173278809
1766385757973015000,8.64401513671875,0.17764854431152344,-1.2279400825500488,1.7942900657653809
1766385757983015200,8.65401513671875,0.7217130661010742,-1.151301622390747,1.756580114364624
1766385757993015000,8.66401513671875,0.5553960800170898,-0.429595947265625,1.8299789428710938
1766385758003015200,8.67401513671875,0.14319229125976562,0.30348873138427734,1.4475152492523193
1766385758013015000,8.68401513671875,0.06612110137939453,0.8801007270812988,0.6825051307678223
1766385758023015200,8.69401513671875,-0.1927194595336914,1.432596206665039,0.1708688735961914
1766385758033015000,8.70401513671875,-0.18764209747314453,1.6963396072387695,-0.19187748432159424
1766385758043015200,8.71401513671875,0.2774801254272461,1.6525483131408691,-0.1691296100616455
1766385758053015000,8.72401513671875,1.0257453918457031,1.1691889762878418,0.05447721481323242
1766385758063015200,8.73401513671875,1.872544288635254,0.4229617118835449,0.23019331693649292
1766385758073015000,8.74401513671875,2.22536563873291,-0.08094978332519531,0.5643592476844788
1766385758083015200,8.75401513671875,1.9243965148925781,-0.03517651557922363,0.9619170427322388
1766385758093015000,8.76401513671875,1.6592111587524414,0.2536473274230957,0.8965046405792236
1766385758103015200,8.77401513671875,1.3148460388183594,0.7538235187530518,0.7106905579566956
1766385758113015000,8.78401513671875,0.7586774826049805,1.1207387447357178,0.4492444396018982
1766385758123015200,8.79401513671875,0.5358810424804688,1.1323020458221436,-0.1257922649383545
1766385758133015000,8.80401513671875,-0.2183980941772461,1.034980058670044,-0.13572287559509277
1766385758143015200,8.81401513671875,-0.40076351165771484,0.9229199886322021,0.1383371353149414
1766385758153015000,8.82401513671875,-0.2313547134399414,0.45311522483825684,0.24279558658599854
1766385758163015200,8.83401513671875,0.09815597534179688,0.14958930015563965,0.2978425621986389
1766385758173015000,8.84401513671875,0.3284578323364258,0.5661723613739014,0.4215701222419739
1766385758183015200,8.85401513671875,0.2809467315673828,1.1176390647888184,0.4580874443054199
1766385758193015000,8.86401513671875,0.3632946014404297,1.3207820653915405,0.37429243326187134
1766385758203015200,8.87401513671875,0.47206974029541016,1.1360547542572021,0.16527500748634338
1766385758213015000,8.88401513671875,0.37329959869384766,0.8341848850250244,0.18192020058631897
1766385758223015200,8.89401513671875,0.027779579162597656,0.44940435886383057,0.2271353006362915
1766385758233015000,8.90401513671875,0.43619346618652344,0.08453845977783203,0.011323995888233185
1766385758243015200,8.91401513671875,0.809697151184082,-0.8661529421806335,-0.48823052644729614
1766385758253015000,8.92401513671875,1.3277435302734375,-1.3211778402328491,-0.5558924674987793
1766385758263015200,8.93401513671875,1.6789751052856445,-1.1789188385009766,-0.3897472620010376
1766385758273015000,8.94401513671875,2.153510093688965,2.513150691986084,-1.2942183017730713
1766385758283015200,8.95401513671875,0.8748607635498047,6.680123805999756,0.693472683429718
1766385758293015000,8.96401513671875,-0.37338924407958984,7.029598236083984,1.9663869142532349
1766385758303015200,8.97401513671875,1.2410345077514648,5.4847893714904785,3.4256460666656494
1766385758313015000,8.98401513671875,0.21503353118896484,3.4021968841552734,2.8882203102111816
1766385758323015200,8.99401513671875,0.8816490173339844,-0.21552914381027222,0.8737318515777588
1766385758333015000,9.00401513671875,0.5898866653442383,-0.4369052052497864,0.46087008714675903
1766385758343015200,9.01401513671875,0.0056934356689453125,0.9294611215591431,0.2974311411380768
1766385758353015000,9.02401513671875,0.14391803741455078,0.9286806583404541,0.1688849776983261
1766385758363015200,9.03401513671875,-0.031087875366210938,0.1361095905303955,0.45780280232429504
1766385758373015000,9.04401513671875,-1.5429048538208008,0.41542983055114746,0.6460740566253662
1766385758383015200,9.05401513671875,-1.193770408630371,0.1476989984512329,-0.1473674178123474
1766385758393015000,9.06401513671875,0.12168598175048828,-0.680873453617096,-0.7778080105781555
1766385758403015200,9.07401513671875,1.6011905670166016,-0.6016621589660645,-1.4270681142807007
1766385758413015000,9.08401513671875,2.0962610244750977,-1.6434451341629028,-0.2924868166446686
1766385758423015200,9.09401513671875,0.8441047668457031,-0.6663227677345276,0.11075425148010254
1766385758433015000,9.10401513671875,0.6969175338745117,0.4156869053840637,-0.2711515724658966
1766385758443015200,9.11401513671875,-0.1394968032836914,0.8211392164230347,0.39836037158966064
1766385758453015000,9.12401513671875,-0.4634723663330078,0.3991008996963501,0.3809047043323517
1766385758463015200,9.13401513671875,-0.6463708877563477,-0.4768722951412201,0.35043299198150635
1766385758473015000,9.14401513671875,-0.6012105941772461,-1.8386375904083252,0.8243172764778137
1766385758483015200,9.15401513671875,-0.33127880096435547,-2.5975451469421387,0.9662495255470276
1766385758493015000,9.16401513671875,-0.0036716461181640625,-1.809121012687683,-0.03348570689558983
1766385758503015200,9.17401513671875,0.7783241271972656,-0.7576794624328613,-1.2456488609313965
1766385758513015000,9.18401513671875,1.6519947052001953,1.0405495166778564,-1.7027437686920166
1766385758523015200,9.19401513671875,1.0587034225463867,1.6785085201263428,-0.6098827719688416
1766385758533015000,9.20401513671875,0.4729156494140625,1.6656993627548218,0.15764442086219788
1766385758543015200,9.21401513671875,0.7834320068359375,1.2730110883712769,-0.25280454754829407
1766385758553015000,9.22401513671875,1.3123464584350586,1.0356088876724243,-0.25935229659080505
1766385758563015200,9.23401513671875,1.1730232238769531,-0.24600064754486084,-0.7816378474235535
1766385758573015000,9.24401513671875,-0.42780399322509766,-1.2822662591934204,-0.05200818181037903
1766385758583015200,9.25401513671875,-2.060579299926758,-0.5303326845169067,1.445443034172058
1766385758593015000,9.26401513671875,-2.482443332672119,0.16592049598693848,2.296157121658325
1766385758603015200,9.27401513671875,-1.9703540802001953,-0.37223267555236816,2.674067735671997
1766385758613015000,9.28401513671875,-1.9089932441711426,-1.463389277458191,1.7578001022338867
1766385758623015200,9.29401513671875,-0.9918727874755859,-3.615330219268799,1.0267109870910645
1766385758633015000,9.30401513671875,-0.8625125885009766,-5.6891913414001465,0.5636253952980042
1766385758643015200,9.31401513671875,-0.18022823333740234,-8.812962532043457,0.41787442564964294
1766385758653015000,9.32401513671875,-0.532841682434082,-2.856719970703125,-3.605379581451416
1766385758663015200,9.33401513671875,2.9517011642456055,12.510868072509766,-7.433849811553955
1766385758673015000,9.34401513671875,3.7520484924316406,9.835610389709473,-1.1343679428100586
1766385758683015200,9.35401513671875,2.215977668762207,-1.0569431781768799,-0.8139218688011169
1766385758693015000,9.36401513671875,0.9849882125854492,-2.2753560543060303,-1.583967685699463
1766385758703015200,9.37401513671875,0.20423030853271484,-0.684704065322876,0.5256789922714233
1766385758713015000,9.38401513671875,0.16770458221435547,0.8035962581634521,1.6904761791229248
1766385758723015200,9.39401513671875,-0.2407703399658203,1.6911746263504028,2.435999631881714
1766385758733015000,9.40401513671875,-0.7828502655029297,1.1707631349563599,2.666029691696167
1766385758743015200,9.41401513671875,-1.2986268997192383,1.3803704977035522,2.9362874031066895
1766385758753015000,9.42401513671875,-1.599980354309082,0.5839686393737793,2.0832817554473877
1766385758763015200,9.43401513671875,-1.2035303115844727,-0.23796939849853516,1.128059983253479
1766385758773015000,9.44401513671875,-0.9371423721313477,0.36644554138183594,0.7101075053215027
1766385758783015200,9.45401513671875,0.18395328521728516,0.4714620113372803,-0.3363497853279114
1766385758793015000,9.46401513671875,1.125722885131836,-0.09409117698669434,-1.7305189371109009
1766385758803015200,9.47401513671875,1.3025579452514648,-0.5623419284820557,-2.345738172531128
1766385758813015000,9.48401513671875,0.5617856979370117,-0.4524085521697998,-1.4862170219421387
1766385758823015200,9.49401513671875,0.04680442810058594,-0.3634169101715088,-0.8091592192649841
1766385758833015000,9.50401513671875,0.29381370544433594,-1.2136131525039673,-1.4714722633361816
1766385758843015200,9.51401513671875,0.28130054473876953,-1.2749415636062622,-1.222197413444519
1766385758853015000,9.52401513671875,0.32698631286621094,-0.7010788917541504,-0.9442715048789978
1766385758863015200,9.53401513671875,-0.3508281707763672,-0.29422974586486816,-0.5400866270065308
1766385758873015000,9.54401513671875,-0.12760448455810547,-0.2429957389831543,0.279092401266098
1766385758883015200,9.55401513671875,-0.3272895812988281,-0.1379380226135254,0.692483127117157
1766385758893015000,9.56401513671875,-0.6271772384643555,-0.0025992393493652344,0.4128130078315735
1766385758903015200,9.57401513671875,-0.07234382629394531,0.7215495109558105,0.1822807341814041
1766385758913015000,9.58401513671875,0.1978769302368164,0.15017366409301758,0.1259256899356842
1766385758923015200,9.59401513671875,-0.3444557189941406,-0.8350915908813477,0.3393087685108185
1766385758933015000,9.60401513671875,-0.543269157409668,0.9066348075866699,0.8130463361740112
1766385758943015200,9.61401513671875,-0.7881622314453125,0.7681808471679688,1.5366259813308716
1766385758953015000,9.62401513671875,-1.5193476676940918,0.44316935539245605,1.63950514793396
1766385758963015000,9.634014892578126,-1.267979621887207,0.5689520835876465,1.343963384628296
1766385758973015000,9.64401513671875,-0.45182323455810547,0.22272992134094238,0.8239825963973999
1766385758983015000,9.654014892578125,0.1569509506225586,0.7523329257965088,0.0105610191822052
1766385758993015000,9.66401513671875,0.4703998565673828,0.7216191291809082,-0.42409825325012207
1766385759003015000,9.674014892578125,-0.02308177947998047,-0.2079150676727295,-0.6632245779037476
1766385759013015000,9.68401513671875,-0.37702369689941406,-0.4578280448913574,-1.2325878143310547
1766385759023015000,9.694014892578124,-0.35050487518310547,-0.3897871971130371,-0.6816178560256958
1766385759033015000,9.70401513671875,-0.7194442749023438,0.14639735221862793,0.16968567669391632
1766385759043015000,9.714014892578126,0.08936405181884766,-0.40090298652648926,-0.5117298364639282
1766385759053015000,9.72401513671875,0.47423362731933594,-0.6477247476577759,-0.4217928647994995
1766385759063015000,9.734014892578125,-0.20151042938232422,0.09492087364196777,-0.14506444334983826
1766385759073015000,9.74401513671875,-1.0187673568725586,0.7133150100708008,0.4521721303462982
1766385759083015000,9.754014892578125,-1.3963274955749512,0.4194338321685791,0.5827743411064148
1766385759093015000,9.76401513671875,-1.7323188781738281,0.336245059967041,0.4917239248752594
1766385759103015000,9.774014892578125,-1.3883237838745117,0.07218146324157715,0.43642285466194153
1766385759113015000,9.78401513671875,0.10227584838867188,0.8220343589782715,0.2714391350746155
1766385759123015000,9.794014892578126,-0.2278919219970703,0.9746646881103516,0.2583644390106201
1766385759133015000,9.80401513671875,0.6116533279418945,-0.05283069610595703,0.10833454132080078
1766385759143015000,9.814014892578125,0.11506462097167969,-0.43792200088500977,0.313186913728714
1766385759153015000,9.82401513671875,-0.010900497436523438,-0.4124760627746582,0.05948227643966675
1766385759163015000,9.834014892578125,-0.2499828338623047,0.12852072715759277,-0.1578533947467804
1766385759173015000,9.84401513671875,-0.6824874877929688,-0.575991153717041,1.0503995418548584
1766385759183015000,9.854014892578125,-1.4314746856689453,-0.8190006017684937,0.7460914254188538
1766385759193015000,9.86401513671875,-1.1408414840698242,-0.3497159481048584,0.5287341475486755
1766385759203015000,9.874014892578124,0.6113405227661133,-0.14838504791259766,-0.20541658997535706
1766385759213015000,9.88401513671875,1.8879976272583008,-2.9382264614105225,-0.15155243873596191
1766385759223015000,9.894014892578125,3.2645692825317383,-4.898210525512695,-1.3218746185302734
1766385759233015000,9.90401513671875,3.979654312133789,-4.638163089752197,-1.0251057147979736
1766385759243015000,9.914014892578125,-0.9916467666625977,-3.9436583518981934,-0.01819080114364624
1766385759253015000,9.92401513671875,-2.143625259399414,5.045391082763672,0.872667133808136
1766385759263015000,9.934014892578125,-3.413379669189453,6.752683162689209,1.738551378250122
1766385759273015000,9.94401513671875,-0.1197500228881836,3.2444143295288086,0.01832050085067749
1766385759283015000,9.954014892578124,0.5691699981689453,-0.7246053218841553,-1.987864375114441
1766385759293015000,9.96401513671875,1.750269889831543,-0.9940322637557983,-2.125887393951416
1766385759303015000,9.974014892578126,1.2676715850830078,-0.46964919567108154,-1.2805949449539185
1766385759313015000,9.98401513671875,1.6979198455810547,-0.33388423919677734,-0.013194024562835693
1766385759323015000,9.994014892578125,0.5446710586547852,0.46076011657714844,1.0718904733657837
1766385759333015000,10.00401513671875,-0.6717624664306641,0.8730392456054688,1.4677696228027344
1766385759343015000,10.014014892578125,0.04437446594238281,-0.10060381889343262,1.447751760482788
1766385759353015000,10.02401513671875,-0.9100446701049805,-1.3889107704162598,0.47355085611343384
1766385759363015000,10.034014892578124,-0.17718791961669922,-2.0210368633270264,-0.7860758304595947
1766385759373015000,10.04401513671875,0.6726608276367188,-3.100560426712036,-0.6800328493118286
1766385759383015000,10.054014892578126,0.8152656555175781,-2.110506057739258,0.28422945737838745
1766385759393015000,10.06401513671875,0.19145679473876953,-3.58772349357605,0.07661402225494385
1766385759403015000,10.074014892578125,-0.8304758071899414,-0.4986152648925781,0.7487083077430725
1766385759413015000,10.08401513671875,-1.0181856155395508,2.7041068077087402,1.2332911491394043
1766385759423015000,10.094014892578125,-1.0534000396728516,3.4897308349609375,0.8738512396812439
1766385759433015000,10.10401513671875,-0.7561864852905273,-4.44034481048584,1.2399425506591797
1766385759443015000,10.114014892578124,1.5642023086547852,-0.5749807357788086,-0.7175973653793335
1766385759453015000,10.12401513671875,2.4815311431884766,1.9444599151611328,-1.4717180728912354
1766385759463015000,10.134014892578126,1.4590320587158203,4.687845230102539,-1.9418672323226929
1766385759473015000,10.14401513671875,1.4704561233520508,3.7052648067474365,-1.9069583415985107
1766385759483015000,10.154014892578125,0.5317287445068359,0.7487649917602539,-0.06675836443901062
1766385759493015000,10.16401513671875,-1.8464841842651367,0.7623019218444824,1.5741543769836426
1766385759503015000,10.174014892578125,-1.7113380432128906,-0.19496464729309082,1.0369782447814941
1766385759513015000,10.18401513671875,-1.5304536819458008,-2.247856616973877,0.6307088136672974
1766385759523015000,10.194014892578124,-0.6785106658935547,-0.6306835412979126,-0.9118672609329224
1766385759533015000,10.20401513671875,0.23303604125976562,-0.8417263031005859,-1.6689844131469727
1766385759543015000,10.214014892578126,0.13395309448242188,-2.04809832572937,-1.483048915863037
1766385759553015000,10.22401513671875,-2.144749641418457,-2.8714301586151123,-0.0007993876934051514
1766385759563015000,10.234014892578125,-0.33506107330322266,-1.883792757987976,0.8295301795005798
1766385759573015000,10.24401513671875,-2.3674159049987793,7.691620826721191,2.49090576171875
1766385759583015000,10.254014892578125,0.3595247268676758,-0.02683091163635254,0.3614199757575989
1766385759593015000,10.26401513671875,-0.08371734619140625,-0.6842646598815918,-0.34908849000930786
1766385759603015000,10.274014892578125,0.4292478561401367,0.4592118263244629,-0.29060032963752747
1766385759613015000,10.28401513671875,1.761012077331543,-0.30552542209625244,-0.5633622407913208
1766385759623015000,10.294014892578126,1.334695816040039,0.34930121898651123,0.7192845344543457
1766385759633015000,10.30401513671875,1.2906255722045898,1.0810816287994385,1.8044447898864746
1766385759643015000,10.314014892578125,1.395970344543457,0.11305892467498779,0.5684815645217896
1766385759653015000,10.32401513671875,0.5247774124145508,-0.05669748783111572,0.43861186504364014
1766385759663015000,10.334014892578125,-0.5243558883666992,-0.2955566644668579,0.7551257610321045
1766385759673015000,10.34401513671875,-0.3704710006713867,0.07907998561859131,-0.18685993552207947
1766385759683015000,10.354014892578125,0.27004528045654297,0.2250756025314331,-2.000457286834717
1766385759693015000,10.36401513671875,1.0053977966308594,0.05342674255371094,-1.5691802501678467
1766385759703015000,10.374014892578124,0.7030410766601562,-0.041364431381225586,-0.5558838844299316
1766385759713015000,10.38401513671875,0.8453550338745117,0.15057289600372314,-0.06702393293380737
1766385759723015000,10.394014892578125,1.1641349792480469,0.23633980751037598,-0.0586814284324646
1766385759733015000,10.40401513671875,1.3330488204956055,0.1726139783859253,-0.30743831396102905
1766385759743015000,10.414014892578125,0.7218227386474609,0.10749232769012451,-0.008646607398986816
1766385759753015000,10.42401513671875,-0.45166015625,-0.06897711753845215,-0.0028191208839416504
1766385759763015000,10.434014892578125,-0.7078094482421875,-0.23469126224517822,0.012733221054077148
1766385759773015000,10.44401513671875,-0.1063394546508789,-0.38437962532043457,0.503669798374176
1766385759783015000,10.454014892578124,-0.42315673828125,-0.279258131980896,0.07017910480499268
1766385759793015000,10.46401513671875,0.11642837524414062,-0.16858458518981934,-0.020660042762756348
1766385759803015000,10.474014892578126,0.25376415252685547,0.011528730392456055,-0.3327348232269287
1766385759813015000,10.48401513671875,0.0362548828125,0.2767399549484253,-0.22219127416610718
1766385759823015000,10.494014892578125,-0.0776662826538086,0.09176111221313477,0.08939969539642334
1766385759833015000,10.50401513671875,0.40426063537597656,0.05233156681060791,0.11636829376220703
1766385759843015000,10.514014892578125,0.28235912322998047,-0.004067420959472656,0.32058292627334595
1766385759853015000,10.52401513671875,0.01684093475341797,-0.4737478494644165,0.38002634048461914
1766385759863015000,10.534014892578124,-0.41463661193847656,0.33777379989624023,-0.19927281141281128
1766385759873015000,10.54401513671875,-0.021134376525878906,0.40014922618865967,0.04409754276275635
1766385759883015000,10.554014892578126,0.14145946502685547,0.1543198823928833,0.29237616062164307
1766385759893015000,10.56401513671875,-0.3578033447265625,0.13287079334259033,0.6513386368751526
1766385759903015000,10.574014892578125,0.1019906997680664,-0.5642983913421631,0.9080538749694824
1766385759913015000,10.58401513671875,0.997990608215332,-2.029350519180298,-0.3913162350654602
1766385759923015000,10.594014892578125,0.1992969512939453,1.4219642877578735,0.4896937608718872
1766385759933015000,10.60401513671875,0.8665866851806641,-1.5001068115234375,-0.13610360026359558
1766385759943015000,10.614014892578124,0.30216503143310547,0.934575080871582,0.17243075370788574
1766385759953015000,10.62401513671875,0.4247903823852539,1.2175400257110596,0.6178389191627502
1766385759963015000,10.634014892578126,0.26501941680908203,0.24710845947265625,1.0930688381195068
1766385759973015000,10.64401513671875,-0.4871826171875,-0.046199917793273926,1.0310741662979126
1766385759983015000,10.654014892578125,-0.1605854034423828,-0.37025129795074463,0.16678255796432495
1766385759993015000,10.66401513671875,-0.428619384765625,-0.51387619972229,-0.757285475730896
1766385760003015000,10.674014892578125,-0.2362356185913086,-0.3465839624404907,-1.274347186088562
1766385760013015000,10.68401513671875,0.20227432250976562,-0.190210223197937,-0.9806431531906128
1766385760023015000,10.694014892578124,0.0076084136962890625,0.5653903484344482,-0.22621852159500122
1766385760033015000,10.70401513671875,0.09056568145751953,0.7391703128814697,0.19431531429290771
1766385760043015000,10.714014892578126,0.5575294494628906,0.33302903175354004,0.1841902732849121
1766385760053015000,10.72401513671875,-0.2721824645996094,-0.0333099365234375,0.5960596203804016
1766385760063015000,10.734014892578125,-0.7162179946899414,-0.34203076362609863,0.7300499081611633
1766385760073015000,10.74401513671875,-0.7110671997070312,-0.11435103416442871,0.08804863691329956
1766385760083015000,10.754014892578125,-0.0897979736328125,-0.0925130844116211,-0.8098918795585632
1766385760093015000,10.76401513671875,0.39568519592285156,0.06976032257080078,-1.087616205215454
1766385760103015000,10.774014892578125,0.39664363861083984,0.050955772399902344,-0.5486125946044922
1766385760113015000,10.78401513671875,0.2884702682495117,0.06598472595214844,-0.04364392161369324
1766385760123015000,10.794014892578126,0.11716938018798828,0.17687678337097168,0.12807577848434448
1766385760133015000,10.80401513671875,-0.4200887680053711,0.1359879970550537,-0.026823222637176514
1766385760143015000,10.814014892578125,-1.1111030578613281,-0.07393240928649902,-0.4127296805381775
1766385760153015000,10.82401513671875,-1.3550453186035156,-0.25104355812072754,-0.3972126245498657
1766385760163015000,10.834014892578125,-0.9734716415405273,-0.3281826972961426,-0.6830193996429443
1766385760173015000,10.84401513671875,-1.141495704650879,-0.1642155647277832,-0.7998340129852295
1766385760183015000,10.854014892578125,-1.5328760147094727,-0.04252767562866211,-0.7867389917373657
1766385760193015000,10.86401513671875,-1.2469778060913086,-0.1396646499633789,-0.3221471607685089
1766385760203015000,10.874014892578124,-1.210378646850586,-0.418226957321167,0.6395224332809448
1766385760213015000,10.88401513671875,-0.7936372756958008,-0.38413548469543457,0.3018344044685364
1766385760223015000,10.894014892578125,1.4707403182983398,-0.5341815948486328,-0.369784414768219
1766385760233015000,10.90401513671875,1.5972728729248047,-0.4016387462615967,-0.25643765926361084
1766385760243015000,10.914014892578125,0.7865457534790039,-0.3161541223526001,0.0734594464302063
1766385760253015000,10.92401513671875,0.3440408706665039,-0.22057151794433594,0.17056837677955627
1766385760263015000,10.934014892578125,0.2440032958984375,-0.05660808086395264,0.11116287112236023
1766385760273015000,10.94401513671875,0.8125381469726562,0.22910356521606445,0.05978637933731079
1766385760283015000,10.954014892578124,0.8903980255126953,0.23722386360168457,-0.17232388257980347
1766385760293015000,10.96401513671875,1.7365360260009766,0.3090249300003052,-0.0012175142765045166
1766385760303015000,10.974014892578126,1.5572309494018555,0.026799440383911133,0.3260049819946289
1766385760313015000,10.98401513671875,0.3931598663330078,0.15022015571594238,0.4113987982273102
1766385760323015000,10.994014892578125,-0.07884979248046875,0.16337299346923828,-0.09803366661071777
1766385760333015000,11.00401513671875,0.0675210952758789,0.20207858085632324,0.2546452283859253
1766385760343015000,11.014014892578125,-0.12822628021240234,0.21573162078857422,0.46783632040023804
1766385760353015000,11.02401513671875,-0.7324228286743164,0.31983304023742676,0.4609384834766388
1766385760363015000,11.034014892578124,-0.6646509170532227,0.4637939929962158,0.32259926199913025
1766385760373015000,11.04401513671875,-0.30701160430908203,0.44185805320739746,0.021732956171035767
1766385760383015000,11.054014892578126,0.5624265670776367,0.06157517433166504,-0.326217383146286
1766385760393015000,11.06401513671875,0.6500978469848633,0.17407989501953125,-0.16588842868804932
1766385760403015000,11.074014892578125,0.8231639862060547,0.2138361930847168,-0.5306239724159241
1766385760413015000,11.08401513671875,0.26954174041748047,0.08859705924987793,0.5210610628128052
1766385760423015000,11.094014892578125,0.7183656692504883,0.24927377700805664,-0.46428629755973816
1766385760433015000,11.10401513671875,-1.780965805053711,0.026047945022583008,0.028548449277877808
1766385760443015000,11.114014892578124,-1.7609176635742188,0.04417824745178223,-0.08484253287315369
1766385760453015000,11.12401513671875,-0.22440052032470703,0.26166486740112305,0.033698588609695435
1766385760463015000,11.134014892578126,-0.13521385192871094,0.24976706504821777,0.14791443943977356
1766385760473015000,11.14401513671875,-0.6936473846435547,0.1316814422607422,0.05167943239212036
1766385760483015000,11.154014892578125,-0.45893096923828125,-0.025758028030395508,-0.11586186289787292
1766385760493015000,11.16401513671875,-1.3877038955688477,-0.1484665870666504,-0.37758690118789673
1766385760503015000,11.174014892578125,-0.11779308319091797,-0.058074951171875,-0.04732385277748108
1766385760513015000,11.18401513671875,0.3818197250366211,-0.028094053268432617,0.1953168511390686
1766385760523015000,11.194014892578124,-0.8695545196533203,0.4665491580963135,0.9606384038925171
1766385760533015000,11.20401513671875,-0.22367572784423828,0.3951389789581299,0.844346284866333
1766385760543015000,11.214014892578126,0.6276874542236328,-0.6516623497009277,-1.04366934299469
1766385760553015000,11.22401513671875,0.40190601348876953,-0.7105860710144043,-1.3351294994354248
1766385760563015000,11.234014892578125,0.713566780090332,-0.05321025848388672,0.008630931377410889
1766385760573015000,11.24401513671875,0.580963134765625,-0.0888206958770752,0.006073892116546631
1766385760583015000,11.254014892578125,0.012783050537109375,-0.11327815055847168,0.005206167697906494
1766385760593015000,11.26401513671875,-0.43972206115722656,-0.16189980506896973,0.03661930561065674
1766385760603015000,11.274014892578125,-0.44498252868652344,-0.17549395561218262,0.09622156620025635
1766385760613015000,11.28401513671875,-0.07163619995117188,-0.12361383438110352,0.14929425716400146
1766385760623015000,11.294014892578126,0.2883872985839844,-0.06852912902832031,0.2591554820537567
1766385760633015000,11.30401513671875,0.34983158111572266,-0.06262588500976562,0.24736931920051575
1766385760643015000,11.314014892578125,0.15728282928466797,-0.06196236610412598,0.26426851749420166
1766385760653015000,11.32401513671875,-0.06402873992919922,-0.08744072914123535,0.25111451745033264
1766385760663015000,11.334014892578125,-0.11573982238769531,-0.12736034393310547,0.2495754361152649
1766385760673015000,11.34401513671875,0.14172077178955078,-0.15686368942260742,0.19003602862358093
1766385760683015000,11.354014892578125,0.22296524047851562,-0.17316031455993652,0.13455286622047424
1766385760693015000,11.36401513671875,-0.1326742172241211,-0.08101272583007812,0.18700215220451355
1766385760703015000,11.374014892578124,-0.414459228515625,-0.09172487258911133,0.19783785939216614
1766385760713015000,11.38401513671875,-0.2907075881958008,-0.025046348571777344,0.22306624054908752
1766385760723015000,11.394014892578125,0.004364013671875,0.04601478576660156,0.2003491222858429
1766385760733015000,11.40401513671875,-1.1364049911499023,-0.027438879013061523,0.07630378007888794
1766385760743015000,11.414014892578125,-2.2509355545043945,-0.21884942054748535,0.0711924135684967
1766385760753015000,11.42401513671875,-2.4574084281921387,-0.16918301582336426,0.2621192932128906
1766385760763015000,11.434014892578125,0.7904319763183594,0.027578353881835938,0.7455235719680786
1766385760773015000,11.44401513671875,2.8885746002197266,-0.20583724975585938,-0.09747046232223511
1766385760783015000,11.454014892578124,0.4434337615966797,-0.06633496284484863,0.26899152994155884
1766385760793015000,11.46401513671875,0.5359706878662109,-0.19697785377502441,0.041910380125045776
1766385760803015000,11.474014892578126,1.3143434524536133,-0.15379858016967773,0.024791061878204346
1766385760813015000,11.48401513671875,0.2685203552246094,0.22463369369506836,0.7747089266777039
1766385760823015000,11.494014892578125,-0.37340354919433594,0.19315075874328613,0.8381996154785156
1766385760833015000,11.50401513671875,-0.8976650238037109,0.03411459922790527,0.7103879451751709
1766385760843015000,11.514014892578125,-0.9932537078857422,-0.02495408058166504,0.8041868209838867
1766385760853015000,11.52401513671875,-0.5522422790527344,0.02971029281616211,0.32334116101264954
1766385760863015000,11.534014892578124,-0.6163415908813477,-0.11228704452514648,0.31735140085220337
1766385760873015000,11.54401513671875,-0.7345972061157227,-0.18396306037902832,-0.015031665563583374
1766385760883015000,11.554014892578126,-0.5979938507080078,-0.18864059448242188,-0.23263001441955566
1766385760893015000,11.56401513671875,-0.2855367660522461,-0.043361663818359375,-0.08695980906486511
1766385760903015000,11.574014892578125,0.45339393615722656,0.03618180751800537,0.1146174967288971
1766385760913015000,11.58401513671875,0.8882265090942383,0.37368452548980713,0.4150185286998749
1766385760923015000,11.594014892578125,1.0635194778442383,0.3729454278945923,0.08123615384101868
1766385760933015000,11.60401513671875,1.2398109436035156,0.21879005432128906,-0.3770374655723572
1766385760943015000,11.614014892578124,1.3687934875488281,0.22804784774780273,-0.6733267307281494
1766385760953015000,11.62401513671875,0.5763378143310547,0.08056128025054932,-0.3084116578102112
1766385760963015000,11.634014892578126,-0.19027328491210938,-0.00443112850189209,-0.17405037581920624
1766385760973015000,11.64401513671875,-0.7441377639770508,0.2844170331954956,-0.2897050976753235
1766385760983015000,11.654014892578125,-0.853123664855957,-0.20030808448791504,0.09795403480529785
1766385760993015000,11.66401513671875,-0.3355073928833008,0.09404516220092773,-0.08697041869163513
1766385761003015000,11.674014892578125,0.8397397994995117,-0.06471407413482666,-0.596461296081543
1766385761013015000,11.68401513671875,1.9823169708251953,-0.2004837989807129,-1.150578498840332
1766385761023015000,11.694014892578124,2.1952037811279297,-0.4318491220474243,-1.270836353302002
1766385761033015000,11.70401513671875,0.7983875274658203,0.2491990327835083,-0.17883294820785522
1766385761043015000,11.714014892578126,-0.07531166076660156,0.32325315475463867,0.12038835883140564
1766385761053015000,11.72401513671875,-0.5521583557128906,-0.09922647476196289,0.08681705594062805
1766385761063015000,11.734014892578125,-1.099966049194336,-0.08375406265258789,0.2862318456172943
1766385761073015000,11.74401513671875,-1.141530990600586,-0.36484265327453613,0.5857263207435608
1766385761083015000,11.754014892578125,-0.4873390197753906,-0.1520148515701294,-0.2311570793390274
1766385761093015000,11.76401513671875,0.4303731918334961,-0.07267904281616211,-1.2819840908050537
1766385761103015000,11.774014892578125,0.7246131896972656,-0.06400609016418457,-0.6140809059143066
1766385761113015000,11.78401513671875,0.8030595779418945,-0.09398269653320312,-0.7038397789001465
1766385761123015000,11.794014892578126,0.2337017059326172,-0.05169391632080078,-0.41211116313934326
1766385761133015000,11.80401513671875,-0.3750619888305664,-0.03996920585632324,-0.18129335343837738
1766385761143015000,11.814014892578125,0.0029449462890625,-0.13498568534851074,0.0025362372398376465
1766385761153015000,11.82401513671875,-1.2487106323242188,-0.16903448104858398,0.17650040984153748
1766385761163015000,11.834014892578125,-0.7614669799804688,-0.11289429664611816,-0.025141417980194092
1766385761173015000,11.84401513671875,-0.2507486343383789,-0.1086728572845459,-0.3323569893836975
1766385761183015000,11.854014892578125,0.014807701110839844,0.002578258514404297,-0.3363763689994812
1766385761193015000,11.86401513671875,0.2883024215698242,0.1258862018585205,-0.3431723117828369
1766385761203015000,11.874014892578124,0.4146919250488281,0.07460689544677734,-0.3781536817550659
1766385761213015000,11.88401513671875,0.5356435775756836,0.13052582740783691,-0.06209513545036316
1766385761223015000,11.894014892578125,1.3294048309326172,0.21039605140686035,-0.18209657073020935
1766385761233015000,11.90401513671875,1.5766487121582031,0.05970883369445801,-0.1144833117723465
1766385761243015000,11.914014892578125,1.2534399032592773,-0.28777432441711426,0.23005640506744385
1766385761253015000,11.92401513671875,1.1093664169311523,-0.11715030670166016,0.06816476583480835
1766385761263015000,11.934014892578125,1.9082231521606445,0.053841352462768555,0.3786260783672333
1766385761273015000,11.94401513671875,0.8149280548095703,0.06828761100769043,0.08074638247489929
1766385761283015000,11.954014892578124,1.3648061752319336,0.0017459392547607422,0.3848412036895752
1766385761293015000,11.96401513671875,-4.65064001083374,-0.8542745113372803,-0.3223738670349121
1766385761303015000,11.974014892578126,-10.477686882019043,-1.0022859573364258,-0.8608471751213074
1766385761313015000,11.98401513671875,-12.850482940673828,0.0052759647369384766,-0.6290124654769897
1766385761323015000,11.994014892578125,-4.938248157501221,0.20714330673217773,1.2177214622497559
1766385761333015000,12.00401513671875,2.5857906341552734,-0.17383384704589844,-0.32630014419555664
1766385761343015000,12.014014892578125,9.128456115722656,0.05547785758972168,0.7819235324859619
1766385761353015000,12.02401513671875,10.312878608703613,0.190812349319458,0.42754504084587097
1766385761363015000,12.034014892578124,5.864977836608887,0.15142416954040527,0.5463131666183472
1766385761373015000,12.04401513671875,-0.5990991592407227,0.0894010066986084,0.5134935975074768
1766385761383015000,12.054014892578126,-4.599098205566406,-0.14130926132202148,0.4830119013786316
1766385761393015000,12.06401513671875,-4.765503883361816,-0.25794267654418945,0.2516527771949768
1766385761403015000,12.074014892578125,-1.4709978103637695,-0.03588271141052246,0.4652690887451172
1766385761413015000,12.08401513671875,1.915461540222168,0.01706671714782715,0.22552695870399475
1766385761423015000,12.094014892578125,2.989532470703125,0.14458990097045898,0.24327290058135986
1766385761433015000,12.10401513671875,1.2888450622558594,0.23181819915771484,0.2274785339832306
1766385761453015000,12.12401513671875,-1.9974021911621094,0.11640453338623047,0.11597883701324463
1766385761463015000,12.134014892578126,-0.7575101852416992,0.1313343048095703,0.21102571487426758
1766385761473015000,12.14401513671875,0.861903190612793,0.08454465866088867,0.09049245715141296
1766385761483015000,12.154014892578125,1.2530860900878906,0.1041557788848877,0.04705023765563965
1766385761493015000,12.16401513671875,0.26854991912841797,0.05515003204345703,0.059961676597595215
1766385761503015000,12.174014892578125,-0.6664304733276367,0.012545347213745117,0.2539452910423279
1766385761513015000,12.18401513671875,-0.5064029693603516,-0.028624296188354492,0.2922578752040863
1766385761523015000,12.194014892578124,0.7803945541381836,0.010315179824829102,0.24436691403388977
1766385761533015000,12.20401513671875,0.6221866607666016,0.1182546615600586,0.2904680669307709
1766385761543015000,12.214014892578126,-0.4525604248046875,0.11537408828735352,0.20194467902183533
1766385761553015000,12.22401513671875,-1.2741813659667969,0.08910012245178223,0.3341977000236511
1766385761563015000,12.234014892578125,-0.8897705078125,0.0965576171875,0.2773445248603821
1766385761573015000,12.24401513671875,0.09096336364746094,0.022098541259765625,0.13546577095985413
1766385761583015000,12.254014892578125,0.6728067398071289,-0.016285419464111328,0.13343945145606995
1766385761593015000,12.26401513671875,0.4985780715942383,-0.037862300872802734,0.14917191863059998
1766385761603015000,12.274014892578125,0.19321632385253906,-0.1211395263671875,0.21549218893051147
1766385761613015000,12.28401513671875,0.013161659240722656,-0.17569208145141602,0.1513080894947052
1766385761623015000,12.294014892578126,-0.20283794403076172,-0.17947626113891602,0.16474667191505432
1766385761633015000,12.30401513671875,-0.022857666015625,-0.1410229206085205,0.1523657739162445
1766385761643015000,12.314014892578125,0.16408348083496094,0.03478646278381348,0.19999617338180542
1766385761653015000,12.32401513671875,0.30234813690185547,0.12097597122192383,0.14250397682189941
1766385761663015000,12.334014892578125,0.48631858825683594,0.07672381401062012,0.1649477481842041
1766385761673015000,12.34401513671875,0.6309280395507812,0.09650444984436035,0.3079575002193451
1766385761683015000,12.354014892578125,0.34726905822753906,0.049962759017944336,0.28523045778274536
1766385761693015000,12.36401513671875,0.2735929489135742,0.061508893966674805,0.14270031452178955
1766385761703015000,12.374014892578124,0.44626808166503906,0.14295458793640137,0.29383939504623413
1766385761713015000,12.38401513671875,-0.06701087951660156,-0.11932921409606934,-0.29904085397720337
1766385761723015000,12.394014892578125,-0.3316650390625,-0.024831056594848633,-0.22099584341049194
1766385761733015000,12.40401513671875,-0.2295846939086914,-0.054947853088378906,-0.3300513029098511
1766385761743015000,12.414014892578125,0.48018836975097656,0.01418924331665039,-0.22598719596862793
1766385761753015000,12.42401513671875,0.9661006927490234,0.05648159980773926,-0.30121809244155884
1766385761763015000,12.434014892578125,0.7311620712280273,0.04970717430114746,-0.34112200140953064
1766385761773015000,12.44401513671875,-0.21461105346679688,-0.007944345474243164,-0.4428553283214569
1766385761783015000,12.454014892578124,-0.687713623046875,-0.0770115852355957,-0.5169334411621094
1766385761793015000,12.46401513671875,-0.4970855712890625,0.20642662048339844,-0.2772454619407654
1766385761803015000,12.474014892578126,-0.1566944122314453,0.49672603607177734,0.06565506756305695
1766385761813015000,12.48401513671875,-1.076664924621582,0.19794583320617676,-0.40273791551589966
