time,seconds_elapsed,z,y,x
1766385749427863800,0.09886376953125,-0.006566796451807022,0.002901607658714056,0.012522728182375431
1766385749444826000,0.115826171875,0.0019853105768561363,0.007788525894284248,0.0015271619195118546
1766385749461788400,0.132788330078125,0.014813470654189587,0.00045814859913662076,0.038789913058280945
1766385749478750500,0.14975048828125,0.017256930470466614,-0.020922118797898293,0.09682206809520721
1766385749495712800,0.166712646484375,0.009315688163042068,-0.02153298258781433,0.12492185086011887
1766385749512675000,0.183675048828125,-0.001679878099821508,-0.01359174121171236,0.10598503798246384
1766385749529637000,0.20063720703125,-0.007788525894284248,0.005955931730568409,0.061391908675432205
1766385749546599400,0.217599365234375,0.0025961752980947495,0.002901607658714056,0.04428769648075104
1766385749563561700,0.234561767578125,0.012980876490473747,-0.012980876490473747,0.035735588520765305
1766385749580524000,0.25152392578125,0.010537417605519295,-0.005650499369949102,-0.0027488914784044027
1766385749597486000,0.268486083984375,0.008704823441803455,0.031612250953912735,-0.011911863461136818
1766385749614448400,0.285448486328125,0.0013744457392022014,0.02000582218170166,0.016187917441129684
1766385749631410700,0.30241064453125,-0.00045814859913662076,-0.01359174121171236,0.04673115536570549
1766385749648372700,0.319372802734375,-0.006566796451807022,-0.011759147047996521,0.04428769648075104
1766385749665335000,0.3363349609375,-0.0010690133785828948,0.008399390615522861,0.010690134018659592
1766385749682297300,0.35329736328125,-0.00045814859913662076,0.005345067009329796,0.011300998739898205
1766385749699259400,0.37025927734375,-0.002290742937475443,0.005345067009329796,0.032681263983249664
1766385749716221700,0.3872216796875,-0.002290742937475443,0.012675444595515728,0.03390299528837204
1766385749733184000,0.40418408203125,0.0025961752980947495,0.018173227086663246,0.0204639695584774
1766385749750146000,0.42114599609375,0.008093958720564842,0.005955931730568409,0.014966187067329884
1766385749767108400,0.4381083984375,0.0038179049734026194,-0.0025961752980947495,0.022907428443431854
1766385749784070700,0.455070556640625,-0.004123337101191282,0.013286309316754341,0.03023780696094036
1766385749801032700,0.47203271484375,-0.004734201822429895,0.012675444595515728,0.047952886670827866
1766385749817995000,0.4889951171875,0.010537417605519295,-0.0007635809597559273,0.05283980444073677
1766385749834957300,0.505957275390625,0.012370011769235134,0.002901607658714056,0.02412915788590908
1766385749851919400,0.52291943359375,0.007483093533664942,0.030390523374080658,0.0009162971982732415
1766385749868881700,0.539881591796875,0.0025961752980947495,0.04260781779885292,0.015577051788568497
1766385749885844000,0.556843994140625,-0.00045814859913662076,0.051159925758838654,0.013133592903614044
1766385749902806300,0.57380615234375,-0.006566796451807022,0.064598947763443,-0.013133592903614044
1766385749919768300,0.590768310546875,-0.01206457894295454,0.05177079141139984,-0.02779434807598591
1766385749936730600,0.607730712890625,-0.004123337101191282,0.02306014485657215,-0.0009162971982732415
1766385749953692700,0.624692626953125,0.01359174121171236,-0.009315688163042068,0.05833758786320686
1766385749970655000,0.641655029296875,0.017256930470466614,-0.008704823441803455,0.08155044913291931
1766385749987617300,0.6586171875,0.017256930470466614,0.00045814859913662076,0.0668896958231926
1766385750004579300,0.675579345703125,0.014813470654189587,-0.006872228812426329,0.054672397673130035
1766385750021541600,0.692541748046875,0.010537417605519295,0.004734201822429895,0.019853105768561363
1766385750038504000,0.70950390625,0.0001527161948615685,0.009621120058000088,-0.022296564653515816
1766385750055466000,0.726466064453125,-0.00045814859913662076,0.004123337101191282,-0.04428769648075104
1766385750072428300,0.74342822265625,0.007483093533664942,0.013286309316754341,-0.0204639695584774
1766385750089390600,0.760390625,0.008704823441803455,0.004123337101191282,0.024740023538470268
1766385750106352600,0.7773525390625,0.009315688163042068,0.002901607658714056,0.057726722210645676
1766385750123315000,0.79431494140625,0.009315688163042068,0.009010255336761475,0.060781046748161316
1766385750140277200,0.81127734375,0.009926552884280682,-0.014202605932950974,0.018631376326084137
1766385750157239300,0.8282392578125,-0.002290742937475443,-0.004428769461810589,-0.01740964688360691
1766385750174201600,0.84520166015625,-0.01206457894295454,0.003512472379952669,-0.02718348242342472
1766385750191164000,0.862163818359375,0.0032070400193333626,0.007788525894284248,0.0009162971982732415
1766385750208126000,0.8791259765625,0.012370011769235134,-0.008704823441803455,0.029626941308379173
1766385750225088300,0.896088134765625,0.011759147047996521,-0.008704823441803455,0.03451386094093323
1766385750242050600,0.913050537109375,0.007483093533664942,0.004734201822429895,0.013133592903614044
1766385750259012600,0.9300126953125,-0.0010690133785828948,0.014508038759231567,-0.015577051788568497
1766385750275975000,0.946974853515625,-0.01695149764418602,0.009010255336761475,-0.02779434807598591
1766385750292937200,0.963937255859375,-0.003512472379952669,-0.0019853105768561363,0.003359756199643016
1766385750309899300,0.980899169921875,0.007483093533664942,-0.0038179049734026194,0.04978547990322113
1766385750326861600,0.997861572265625,0.005650499369949102,-0.0062613640911877155,0.05345066636800766
1766385750343824000,1.014823974609375,0.004428769461810589,0.002290742937475443,0.008857538923621178
1766385750360786000,1.031785888671875,0.005039634648710489,0.009621120058000088,-0.021685699000954628
1766385750377748200,1.048748291015625,0.0013744457392022014,-0.0025961752980947495,-0.022296564653515816
1766385750394710500,1.06571044921875,-0.002290742937475443,-0.009315688163042068,-0.013133592903614044
1766385750411672800,1.0826728515625,-0.005955931730568409,-0.0032070400193333626,-0.000305432389723137
1766385750428635000,1.099634765625,0.0007635809597559273,-0.0007635809597559273,0.022907428443431854
1766385750445597200,1.11659716796875,0.005039634648710489,-0.012980876490473747,0.04245510324835777
1766385750462559500,1.1335595703125,0.0032070400193333626,-0.004428769461810589,0.022907428443431854
1766385750479521500,1.150521484375,0.0019853105768561363,0.012675444595515728,-0.0027488914784044027
1766385750496483800,1.16748388671875,-0.004123337101191282,0.006566796451807022,-0.008857538923621178
1766385750513446100,1.184446044921875,-0.005955931730568409,-0.0062613640911877155,-0.008857538923621178
1766385750530408200,1.201408203125,0.0038179049734026194,-0.011759147047996521,0.0027488914784044027
1766385750547370500,1.21837060546875,0.007483093533664942,-0.0154243353754282,0.03023780696094036
1766385750564332800,1.235332763671875,0.006872228812426329,-0.0032070400193333626,0.05406153202056885
1766385750581294800,1.252294921875,-0.001679878099821508,0.005955931730568409,0.05955931544303894
1766385750598257200,1.269257080078125,0.0001527161948615685,-0.0038179049734026194,0.048563748598098755
1766385750615219500,1.286219482421875,-0.00045814859913662076,-0.019700389355421066,0.01740964688360691
1766385750632181800,1.303181640625,-0.004123337101191282,-0.0062613640911877155,0.0015271619195118546
1766385750649143800,1.320143798828125,0.0001527161948615685,-0.0025961752980947495,0.025961752980947495
1766385750666106000,1.337106201171875,0.0013744457392022014,-0.005039634648710489,0.04062250629067421
1766385750683068400,1.354068359375,-0.003512472379952669,-0.004428769461810589,0.01740964688360691
1766385750700030700,1.37103076171875,-0.0010690133785828948,0.010842849500477314,-0.010079269297420979
1766385750716992800,1.38799267578125,0.0007635809597559273,-0.0007635809597559273,-0.003359756199643016
1766385750733955000,1.404955078125,-0.0010690133785828948,-0.007483093533664942,0.023518294095993042
1766385750750917400,1.42191748046875,0.0032070400193333626,-0.012980876490473747,0.04245510324835777
1766385750767879700,1.438879638671875,0.0062613640911877155,-0.005650499369949102,0.038789913058280945
1766385750784841700,1.455841796875,-0.005345067009329796,0.002290742937475443,0.015577051788568497
1766385750801804000,1.472803955078125,-0.0102319847792387,0.00045814859913662076,-0.013133592903614044
1766385750818766300,1.489766357421875,-0.002290742937475443,-0.006872228812426329,-0.012522728182375431
1766385750835728600,1.506728759765625,0.0001527161948615685,-0.0154243353754282,0.0204639695584774
1766385750852691000,1.52369091796875,0.0001527161948615685,-0.005039634648710489,0.035735588520765305
1766385750869653000,1.540653076171875,0.0007635809597559273,-0.0001527161948615685,0.01435532234609127
1766385750886615300,1.557615234375,0.0038179049734026194,-0.0062613640911877155,0.003970621153712273
1766385750903577600,1.57457763671875,-0.0010690133785828948,-0.012370011769235134,0.010079269297420979
1766385750920540000,1.591539794921875,-0.0010690133785828948,0.006566796451807022,-0.0015271619195118546
1766385750937502200,1.608502197265625,-0.001679878099821508,0.005345067009329796,0.000305432389723137
1766385750954464300,1.62546435546875,-0.001679878099821508,0.003512472379952669,0.019853105768561363
1766385750971426600,1.642426513671875,0.0001527161948615685,-0.014813470654189587,0.023518294095993042
1766385750988388900,1.659388916015625,0.005650499369949102,-0.017867794260382652,0.02412915788590908
1766385751005351200,1.67635107421875,0.0025961752980947495,-0.01359174121171236,0.028405211865901947
1766385751022313500,1.6933134765625,0.005039634648710489,-0.0062613640911877155,0.04978547990322113
1766385751039275500,1.710275634765625,0.004428769461810589,0.002290742937475443,0.1029307171702385
1766385751056237800,1.72723779296875,0.006872228812426329,0.02977965772151947,0.1640172004699707
1766385751073200000,1.7442001953125,0.02764163166284561,0.021227551624178886,0.18417572975158691
1766385751090162400,1.761162353515625,0.04108065739274025,0.027336198836565018,0.18356487154960632
1766385751107124700,1.778124755859375,0.01908952370285988,0.04505127668380737,0.231212317943573
1766385751124087000,1.795087158203125,0.025809036567807198,0.13729186356067657,0.34727662801742554
1766385751141049300,1.81204931640625,0.05451968312263489,0.16844595968723297,0.46883872151374817
1766385751158011400,1.829011474609375,0.06795870512723923,0.046883873641490936,0.46395179629325867
1766385751174973700,1.8459736328125,0.02825249545276165,0.07131846249103546,0.39736753702163696
1766385751191936000,1.86293603515625,0.007483093533664942,0.14401137828826904,0.314289927482605
1766385751208898300,1.879898193359375,0.045967575162649155,0.0487164668738842,0.2678641974925995
1766385751225860600,1.896860595703125,0.049632761627435684,-0.02214384824037552,0.2257145345211029
1766385751242823000,1.913822998046875,0.02153298258781433,-0.05940660089254379,0.15546508133411407
1766385751259785200,1.93078515625,0.042913250625133514,-0.05940660089254379,0.07971785217523575
1766385751276747500,1.94774755859375,0.03375028073787689,-0.05635227635502815,0.05345066636800766
1766385751293709600,1.96470947265625,0.03375028073787689,-0.05024362727999687,0.054672397673130035
1766385751310672000,1.981671875,0.028863361105322838,0.0792597085237503,0.10354158282279968
1766385751327634200,1.99863427734375,0.02825249545276165,-0.061850059777498245,0.06017018109560013
1766385751344596500,2.015596435546875,0.01359174121171236,0.018173227086663246,-0.07238747924566269
1766385751361558800,2.032558837890625,-0.018784092739224434,0.037720900028944016,-0.18173226714134216
1766385751378521000,2.04952099609375,-0.030390523374080658,0.018784092739224434,-0.14019346237182617
1766385751395483400,2.0664833984375,-0.034666575491428375,-0.07101303339004517,0.016798781231045723
1766385751412445700,2.08344580078125,-0.02306014485657215,0.05543597787618637,0.11942406743764877
1766385751429408000,2.100407958984375,-0.010842849500477314,-0.017867794260382652,0.04001164436340332
1766385751446370000,2.1173701171875,-0.01206457894295454,-0.008704823441803455,-0.11881320178508759
1766385751463332400,2.134332275390625,-0.003512472379952669,-0.02153298258781433,-0.23304490745067596
1766385751480294700,2.151294677734375,-0.004123337101191282,0.02916879393160343,-0.1805105358362198
1766385751497257000,2.168257080078125,-0.022449281066656113,0.003512472379952669,-0.011300998739898205
1766385751514219300,2.18521923828125,-0.003512472379952669,-0.02458730712532997,0.10720676928758621
1766385751531181600,2.202181640625,0.0001527161948615685,-0.022754713892936707,0.09437860548496246
1766385751548143900,2.219143798828125,-0.0010690133785828948,-0.006872228812426329,-0.03023780696094036
1766385751565106200,2.236106201171875,-0.005345067009329796,0.0102319847792387,-0.15607595443725586
1766385751582068500,2.253068359375,-0.01206457894295454,0.03955349326133728,-0.19272783398628235
1766385751599030800,2.27003076171875,-0.008399390615522861,0.02367101050913334,-0.13041962683200836
1766385751615993000,2.2869931640625,-0.002290742937475443,-0.009315688163042068,-0.016187917441129684
1766385751632955400,2.303955322265625,-0.007177661173045635,-0.023365577682852745,0.06811141967773438
1766385751649917700,2.320917724609375,-0.012675444595515728,-0.028863361105322838,0.09132428467273712
1766385751666880000,2.3378798828125,-0.011453714221715927,-0.022754713892936707,0.0766635313630104
1766385751683842300,2.35484228515625,0.0013744457392022014,-0.02458730712532997,0.05100720748305321
1766385751700804600,2.3718046875,-0.009010255336761475,-0.0154243353754282,0.0308486707508564
1766385751717767000,2.388766845703125,-0.018784092739224434,0.031612250953912735,0.03329212963581085
1766385751734729200,2.405729248046875,-0.03711003437638283,0.05849030241370201,0.03390299528837204
1766385751751691500,2.42269140625,-0.03283398225903511,0.050549060106277466,0.05955931544303894
1766385751768653800,2.43965380859375,-0.03405570983886719,0.025503603741526604,0.11148282140493393
1766385751785616000,2.456615966796875,-0.012675444595515728,0.009621120058000088,0.1591302752494812
1766385751802578200,2.473578125,-0.021227551624178886,0.004123337101191282,0.21349723637104034
1766385751819540500,2.49054052734375,-0.06765327602624893,-0.03375028073787689,0.21471896767616272
1766385751836502800,2.507502685546875,-0.064598947763443,-0.020922118797898293,0.1585194170475006
1766385751853465000,2.524465087890625,-0.041386090219020844,0.02367101050913334,0.13225223124027252
1766385751870427400,2.541427490234375,-0.02672533318400383,0.01206457894295454,0.19639302790164948
1766385751887389700,2.5583896484375,-0.03222311660647392,0.006566796451807022,0.2813032269477844
1766385751904352000,2.57535205078125,-0.03222311660647392,-0.06490438431501389,0.3582721948623657
1766385751921314300,2.592314208984375,-0.054214250296354294,-0.20357069373130798,0.406530499458313
1766385751938276600,2.609276611328125,-0.11285726726055145,-0.21700970828533173,0.40897396206855774
1766385751955239000,2.626239013671875,-0.11285726726055145,-0.21700970828533173,0.30634868144989014
1766385751972201200,2.643201171875,-0.07681624591350555,-0.16019928455352783,0.17562362551689148
1766385751989163500,2.66016357421875,-0.03283398225903511,-0.17302745580673218,0.03390299528837204
1766385752006125800,2.677125732421875,-0.009621120058000088,-0.1821904182434082,-0.0974329337477684
1766385752023088000,2.694088134765625,-0.04566214233636856,-0.0948367565870285,-0.16096286475658417
1766385752040050400,2.711050537109375,-0.04199695214629173,0.07315105944871902,-0.06994401663541794
1766385752057012700,2.7280126953125,-0.01695149764418602,0.08414662629365921,0.10354158282279968
1766385752073975000,2.74497509765625,0.030695954337716103,-0.04718930274248123,0.14691297709941864
1766385752090937300,2.761937255859375,0.036193739622831345,-0.03375028073787689,0.05528326332569122
1766385752107899600,2.778899658203125,0.027030766010284424,-0.02825249545276165,-0.05711585655808449
1766385752124862000,2.795862060546875,0.02764163166284561,-0.12782345712184906,-0.09376774728298187
1766385752141824300,2.81282421875,-0.017562363296747208,-0.06856957077980042,-0.06261363625526428
1766385752158786600,2.82978662109375,-0.02916879393160343,0.027947064489126205,-0.054672397673130035
1766385752175748900,2.846748779296875,-0.04016435891389847,0.050549060106277466,-0.09560033679008484
1766385752192711200,2.863711181640625,-0.03955349326133728,0.06520981341600418,-0.0870482325553894
1766385752209673500,2.880673583984375,-0.02000582218170166,0.047494735568761826,-0.08032871782779694
1766385752226635800,2.8976357421875,0.0013744457392022014,0.060322895646095276,-0.11331541836261749
1766385752243598000,2.91459814453125,0.01359174121171236,0.0792597085237503,-0.21288637816905975
1766385752260560400,2.931560302734375,0.0001527161948615685,0.11591159552335739,-0.27580544352531433
1766385752277522700,2.948522705078125,-0.01511890348047018,0.12873975932598114,-0.27458372712135315
1766385752294484700,2.965484619140625,-0.02367101050913334,0.08353576064109802,-0.210442915558815
1766385752311447300,2.982447265625,-0.04321868345141411,0.06887500733137131,-0.11881320178508759
1766385752328409600,2.99940966796875,-0.050549060106277466,0.145843967795372,-0.07422006875276566
1766385752345371600,3.01637158203125,-0.02977965772151947,0.11407899856567383,-0.04734202101826668
1766385752362334000,3.033333984375,-0.002901607658714056,0.04505127668380737,-0.02412915788590908
1766385752379296300,3.050296142578125,-0.00045814859913662076,0.03894263133406639,0.0027488914784044027
1766385752396258800,3.0672587890625,-0.013897174037992954,0.050549060106277466,-0.023518294095993042
1766385752413220900,3.084220947265625,-0.06765327602624893,-0.02153298258781433,-0.06017018109560013
1766385752430183200,3.10118310546875,-0.021838415414094925,-0.10094540566205978,-0.06872228533029556
1766385752447145500,3.1181455078125,0.012980876490473747,-0.1101083755493164,0.04550942778587341
1766385752464107800,3.135107666015625,0.04046979174017906,-0.1107192412018776,0.14630211889743805
1766385752481070000,3.152070068359375,0.04046979174017906,-0.06856957077980042,0.14263692498207092
1766385752498032400,3.169032470703125,0.014813470654189587,-0.004428769461810589,0.03145953640341759
1766385752514994700,3.18599462890625,-0.024281874299049377,0.10613775253295898,-0.05955931544303894
1766385752531957000,3.20295703125,-0.05482511222362518,0.22586725652217865,-0.05955931544303894
1766385752548919300,3.219919189453125,-0.005955931730568409,0.18310672044754028,-0.04978547990322113
1766385752565881600,3.236881591796875,0.012370011769235134,0.09758564829826355,-0.023518294095993042
1766385752582844000,3.253843994140625,0.020311253145337105,0.10674861818552017,-0.05894844979047775
1766385752599806200,3.27080615234375,0.04169152304530144,0.08842267841100693,-0.11087195575237274
1766385752616768500,3.2877685546875,0.04230238497257233,0.04260781779885292,-0.09865466505289078
1766385752633730800,3.304730712890625,0.023365577682852745,0.002290742937475443,-0.0412333719432354
1766385752650693000,3.321693115234375,-0.004734201822429895,0.008399390615522861,-0.029626941308379173
1766385752667655400,3.338655517578125,-0.027336198836565018,0.053603384643793106,-0.129197895526886
1766385752684617700,3.35561767578125,-0.0383317656815052,0.10858121514320374,-0.2159406989812851
1766385752701580000,3.372580078125,-0.0010690133785828948,0.1049160286784172,-0.1847866028547287
1766385752718542300,3.389542236328125,-0.0010690133785828948,0.08720094710588455,-0.06200277432799339
1766385752735504600,3.406504638671875,-0.002901607658714056,0.04993819445371628,0.021685699000954628
1766385752752467000,3.423467041015625,-0.005955931730568409,0.02306014485657215,0.011300998739898205
1766385752769429200,3.44042919921875,0.016035201027989388,0.013897174037992954,-0.06261363625526428
1766385752786391600,3.4573916015625,0.011148282326757908,0.007788525894284248,-0.11453714966773987
1766385752803353900,3.474353759765625,0.0032070400193333626,-0.06307178735733032,-0.06017018109560013
1766385752820316200,3.491316162109375,-0.012675444595515728,-0.07589995115995407,0.013133592903614044
1766385752837278500,3.508278564453125,-0.018173227086663246,-0.0386371985077858,0.012522728182375431
1766385752854240800,3.52524072265625,0.0007635809597559273,-0.01847865991294384,-0.03390299528837204
1766385752871203000,3.542203125,0.0013744457392022014,-0.0062613640911877155,-0.057726722210645676
1766385752888165400,3.559165283203125,0.005039634648710489,0.016340631991624832,-0.04245510324835777
1766385752905127700,3.576127685546875,0.011148282326757908,0.006566796451807022,0.0021380267571657896
1766385752922090000,3.593090087890625,0.02214384824037552,-0.0539088174700737,0.06811141967773438
1766385752939052300,3.61005224609375,0.009315688163042068,-0.06734783947467804,0.057726722210645676
1766385752956014600,3.6270146484375,0.008704823441803455,-0.0435241162776947,-0.03390299528837204
1766385752972977000,3.643976806640625,-0.005345067009329796,0.005345067009329796,-0.0717766135931015
1766385752989939200,3.660939208984375,-0.009621120058000088,0.01695149764418602,-0.015577051788568497
1766385753006901500,3.677901611328125,-0.013286309316754341,0.009010255336761475,0.041844237595796585
1766385753023863800,3.69486376953125,-0.01206457894295454,-0.03191768378019333,0.05528326332569122
1766385753040826000,3.711826171875,-0.013897174037992954,-0.029474224895238876,0.007635809946805239
1766385753057788400,3.728788330078125,-0.017562363296747208,0.03405570983886719,-0.11331541836261749
1766385753074750700,3.745750732421875,-0.018784092739224434,0.043829549103975296,-0.15607595443725586
1766385753091713000,3.762713134765625,-0.021838415414094925,-0.02153298258781433,-0.008246674202382565
1766385753108675300,3.77967529296875,-0.024892739951610565,-0.045967575162649155,0.10476330667734146
1766385753125637600,3.7966376953125,-0.034666575491428375,-0.012980876490473747,0.05222893878817558
1766385753142600000,3.813599853515625,-0.0334448479115963,0.03649916872382164,-0.0974329337477684
1766385753159562200,3.830562255859375,0.0013744457392022014,0.09941824525594711,-0.15546508133411407
1766385753176524500,3.847524658203125,0.02153298258781433,0.031612250953912735,-0.019242240116000175
1766385753193486800,3.86448681640625,0.014813470654189587,-0.01359174121171236,0.12370011955499649
1766385753210449200,3.88144921875,0.010537417605519295,-0.029474224895238876,0.1432477980852127
1766385753227411500,3.898411376953125,0.011759147047996521,-0.04169152304530144,0.09132428467273712
1766385753244373800,3.915373779296875,0.030085090547800064,-0.04780016839504242,0.021685699000954628
1766385753261336000,3.932336181640625,0.023976443335413933,0.0743727833032608,-0.005192350596189499
1766385753278298400,3.94929833984375,0.04474584385752678,0.13484840095043182,0.010079269297420979
1766385753295260700,3.9662607421875,0.0435241162776947,0.09697478264570236,0.04978547990322113
1766385753312223000,3.983222900390625,0.02458730712532997,0.05604684352874756,0.03756818547844887
1766385753329185300,4.000185302734375,0.007483093533664942,0.021838415414094925,-0.044898562133312225
1766385753346147600,4.017147705078125,-0.009621120058000088,-0.03191768378019333,-0.12492185086011887
1766385753363110000,4.03410986328125,-0.016340631991624832,-0.04474584385752678,-0.11514800786972046
1766385753380072200,4.051072265625,-0.01511890348047018,-0.09911280870437622,-0.04245510324835777
1766385753397034500,4.068034423828125,-0.003512472379952669,-0.07895427197217941,0.06627883017063141
1766385753413996800,4.084996826171875,-0.04321868345141411,-0.03497200831770897,0.22754712402820587
1766385753430959000,4.101958984375,-0.14401137828826904,-0.18402300775051117,0.3943132162094116
1766385753447921400,4.11892138671875,-0.05971203371882439,-0.45097091794013977,0.5115992426872253
1766385753464883700,4.1358837890625,-0.09453132748603821,-0.4546361267566681,0.37354379892349243
1766385753481846000,4.152845947265625,-0.043829549103975296,-0.19135339558124542,0.06322450190782547
1766385753498808300,4.169808349609375,0.09117157012224197,0.0639880821108818,-0.27580544352531433
1766385753515770600,4.1867705078125,0.14920371770858765,0.3675878942012787,-0.5763509273529053
1766385753532733000,4.20373291015625,0.17119485139846802,0.2393062710762024,-0.5036579966545105
1766385753549695200,4.2206953125,0.15897755324840546,0.10858121514320374,-0.29901832342147827
1766385753566657500,4.237657470703125,0.08872810751199722,-0.13881902396678925,-0.04245510324835777
1766385753583619800,4.254619873046875,0.08384118974208832,-0.2023489624261856,0.060781046748161316
1766385753600582100,4.27158203125,-0.022449281066656113,0.0334448479115963,0.03817904740571976
1766385753617544400,4.28854443359375,0.08384118974208832,0.6925679445266724,0.032070402055978775
1766385753634506800,4.3055068359375,0.1565341055393219,0.9448550939559937,0.2415970265865326
1766385753651469000,4.322468994140625,0.14248420298099518,0.7145590782165527,0.4114174246788025
1766385753668431400,4.339431396484375,0.10827577859163284,0.2594648003578186,0.38820457458496094
1766385753685393700,4.3563935546875,0.0154243353754282,0.007788525894284248,0.2367101013660431
1766385753702356000,4.37335595703125,-0.10858121514320374,-0.09972367435693741,0.08032871782779694
1766385753719318300,4.390318359375,-0.16661337018013,0.025503603741526604,-0.035735588520765305
1766385753736280600,4.407280517578125,-0.1727220118045807,0.402407169342041,-0.19272783398628235
1766385753753243000,4.424242919921875,-0.10674861818552017,0.49892380833625793,-0.2458730787038803
1766385753770205200,4.441205078125,-0.0847574844956398,0.47754353284835815,-0.2006690800189972
1766385753787167500,4.45816748046875,-0.0951421856880188,0.46838057041168213,-0.003359756199643016
1766385753804129800,4.4751298828125,-0.060322895646095276,0.44211336970329285,0.4413498044013977
1766385753821092000,4.492092041015625,0.15531237423419952,0.1715002804994583,0.732121467590332
1766385753838054400,4.509054443359375,0.4271472096443176,-0.10766492038965225,0.46944957971572876
1766385753855016700,4.5260166015625,0.7325795888900757,-0.5242747068405151,0.37843072414398193
1766385753871979000,4.54297900390625,0.9127846956253052,-0.7093667387962341,0.5073232054710388
1766385753888941300,4.55994140625,0.6073523163795471,-0.5083922147750854,0.2971857190132141
1766385753905903600,4.576903564453125,0.39599308371543884,-0.18035782873630524,-0.13164135813713074
1766385753922866000,4.593865966796875,0.45769044756889343,0.32421648502349854,-0.39858928322792053
1766385753939828200,4.610828125,-0.393244206905365,0.8184061050415039,-0.39248061180114746
1766385753956790500,4.62779052734375,-0.5991056561470032,0.18127411603927612,-0.2617555558681488
1766385753973752800,4.6447529296875,-0.04627300798892975,0.21609342098236084,-0.878118097782135
1766385753990715100,4.661715087890625,0.5358811020851135,0.04321868345141411,-1.477987289428711
1766385754007677400,4.678677490234375,0.5309942364692688,-0.0948367565870285,-1.3613121509552002
1766385754024639700,4.6956396484375,0.08811724185943604,0.06887500733137131,-0.8011491298675537
1766385754041602000,4.71260205078125,-0.5154171586036682,0.4066832363605499,-0.01740964688360691
1766385754058564400,4.729564453125,-1.1207841634750366,0.5129737257957458,0.6508764028549194
1766385754075526700,4.746526611328125,-1.595426082611084,0.2533561587333679,0.6533198952674866
1766385754092489000,4.763489013671875,-1.8202242851257324,-0.06246092543005943,0.14813470840454102
1766385754109451300,4.780451171875,-1.6088651418685913,0.1055268943309784,-0.032681263983249664
1766385754126413600,4.79741357421875,-1.136055827140808,0.5203040838241577,0.33628106117248535
1766385754143376000,4.8143759765625,-0.8287907838821411,0.9527963399887085,0.6050615906715393
1766385754160338200,4.831338134765625,-0.753043532371521,0.8440623879432678,0.4663952589035034
1766385754177300500,4.848300537109375,-0.7365502119064331,0.34437501430511475,0.3430005609989166
1766385754194262800,4.8652626953125,-0.49281516671180725,0.2338084876537323,0.3326158821582794
1766385754211225000,4.88222509765625,-0.228921577334404,0.4182896614074707,0.1792888194322586
1766385754228187400,4.8991875,-0.12690715491771698,0.9527963399887085,-0.011911863461136818
1766385754245149700,4.916149658203125,-0.4292852282524109,1.4854704141616821,0.25870123505592346
1766385754262112000,4.933112060546875,-0.6626355648040771,2.1940736770629883,0.9563088417053223
1766385754279074300,4.95007421875,-0.47143489122390747,2.606407403945923,1.1713331937789917
1766385754296036600,4.96703662109375,0.05024362727999687,1.9155192375183105,1.1957677602767944
1766385754312999000,4.9839990234375,0.5206094980239868,1.4139991998672485,0.9746347665786743
1766385754329961200,5.000961181640625,0.471129447221756,1.6070325374603271,0.38209593296051025
1766385754346923500,5.017923583984375,-0.028557928279042244,1.365130066871643,-0.37232208251953125
1766385754363885800,5.0348857421875,-0.3217730224132538,-0.2390008419752121,-1.778532862663269
1766385754380848000,5.05184814453125,-0.7548761367797852,-1.4845541715621948,-1.451720118522644
1766385754397810400,5.068810546875,-1.1635446548461914,-1.0612248182296753,-1.018617033958435
1766385754414772700,5.085772705078125,-0.6736311316490173,0.20204351842403412,-0.41325002908706665
1766385754431735000,5.102735107421875,-0.23197589814662933,1.6565126180648804,-0.2306014597415924
1766385754448697300,5.119697265625,-0.0591011680662632,2.00104022026062,-0.08155044913291931
1766385754465659600,5.13665966796875,0.0435241162776947,1.716988205909729,-0.37354379892349243
1766385754482622000,5.1536220703125,-0.3584249019622803,0.6663007736206055,-1.1389573812484741
1766385754499584300,5.170584228515625,-0.8263473510742188,-0.3312414288520813,-1.1163554191589355
1766385754516546600,5.187546630859375,-0.49770209193229675,-0.744796872138977,-0.2764163017272949
1766385754533508900,5.2045087890625,0.19990549981594086,-0.8529199361801147,0.5684096813201904
1766385754550471200,5.22147119140625,0.6042979955673218,-0.4540252387523651,0.8469640016555786
1766385754567433500,5.23843359375,0.4705185890197754,-0.8443678617477417,0.8170316219329834
1766385754584395800,5.255395751953125,0.2848156988620758,-1.011744737625122,0.6808087825775146
1766385754601358000,5.272358154296875,-0.003512472379952669,-0.6733257174491882,0.562911868095398
1766385754618320400,5.2893203125,-0.4751000702381134,-0.9078977704048157,0.509155809879303
1766385754635282700,5.30628271484375,-0.9234748482704163,-1.3293944597244263,0.5616901516914368
1766385754652245000,5.323244873046875,-0.4335612654685974,-2.2395830154418945,2.1364996433258057
1766385754669207300,5.340207275390625,-0.46776971220970154,-0.6104066371917725,1.6227623224258423
1766385754686169600,5.357169677734375,0.026419902220368385,-1.800982117652893,0.29535311460494995
1766385754703132000,5.3741318359375,-0.14828743040561676,-1.7948734760284424,-0.08460476994514465
1766385754720094200,5.39109423828125,-0.19837833940982819,-1.3666572570800781,-0.22204934060573578
1766385754737056500,5.408056396484375,-0.4702131748199463,-1.0893245935440063,-0.5152644515037537
1766385754754018800,5.425018798828125,-0.7005091905593872,-0.8407026529312134,-0.4932733178138733
1766385754770981000,5.441981201171875,-0.7658717036247253,-0.633008599281311,-0.22937972843647003
1766385754787943400,5.458943359375,-0.8764382600784302,-0.31780239939689636,0.07116574794054031
1766385754804905700,5.47590576171875,-0.6974548697471619,-0.24999640882015228,0.34116798639297485
1766385754821868000,5.492867919921875,-0.18982623517513275,-0.45707955956459045,0.3283398151397705
1766385754838830300,5.509830322265625,0.47723811864852905,-0.8688024282455444,0.34666576981544495
1766385754855792600,5.526792724609375,1.0221295356750488,-1.213940978050232,0.6172788739204407
1766385754872755000,5.5437548828125,1.3043490648269653,-1.3623812198638916,1.128572702407837
1766385754889717200,5.56071728515625,1.7759366035461426,-1.2114975452423096,1.3081669807434082
1766385754906679600,5.577679443359375,2.0166172981262207,-1.042288064956665,0.5433642268180847
1766385754923641900,5.594641845703125,1.6898046731948853,-1.057559609413147,-0.43340855836868286
1766385754940604200,5.611604248046875,1.1271982192993164,-0.9702059626579285,-0.887891948223114
1766385754957566500,5.62856640625,0.735023021697998,-0.5548179149627686,-0.5702422857284546
1766385754974528800,5.64552880859375,0.5694786906242371,-0.5163334608078003,-0.231212317943573
1766385754991491000,5.662490966796875,0.6391173005104065,-0.2860374450683594,-0.7168498039245605
1766385755008453400,5.679453369140625,0.42653632164001465,-0.4601338803768158,-1.201265573501587
1766385755025415700,5.696415771484375,0.18890993297100067,-0.5896372199058533,-1.204319953918457
1766385755042378000,5.7133779296875,0.4650208055973053,-0.26099199056625366,-0.7009673118591309
1766385755059340300,5.73034033203125,0.633008599281311,-0.5652026534080505,-0.5287034511566162
1766385755076302600,5.747302490234375,0.5077813267707825,-0.1363755613565445,-0.8927788734436035
1766385755093265000,5.764264892578125,0.014813470654189587,0.005955931730568409,-1.0680971145629883
1766385755110227200,5.781227294921875,-0.3975202441215515,0.09392046183347702,-1.1841614246368408
1766385755127189500,5.798189453125,-0.6950113773345947,0.2606865465641022,-0.7070759534835815
1766385755144151800,5.81515185546875,-0.6974548697471619,0.3462076187133789,-0.4364628791809082
1766385755161114000,5.832114013671875,-0.5948295593261719,0.009621120058000088,-0.6459894776344299
1766385755178076400,5.849076416015625,-0.671187698841095,-0.38438665866851807,-0.36682429909706116
1766385755195038700,5.866038818359375,-0.5789470672607422,-0.3110828995704651,0.13775001466274261
1766385755212001000,5.8830009765625,-0.15073087811470032,-0.016646064817905426,0.562911868095398
1766385755228963300,5.89996337890625,0.0062613640911877155,0.07498364895582199,0.5604684352874756
1766385755245925600,5.916925537109375,-0.2741255760192871,0.1366809904575348,0.3741546869277954
1766385755262888000,5.933887939453125,-0.19532401859760284,-0.0001527161948615685,-0.17745621502399445
1766385755279850200,5.950850341796875,0.24327689409255981,-0.05085449293255806,-0.11148282140493393
1766385755296812500,5.9678125,0.5236638188362122,-0.24999640882015228,0.10965022444725037
1766385755313774800,5.98477490234375,0.5395463109016418,-0.4992292523384094,0.3643808364868164
1766385755330737200,6.001737060546875,0.4546361267566681,-0.4387536346912384,0.8274163603782654
1766385755347699500,6.018699462890625,0.2964221239089966,-0.47357290983200073,0.9782999157905579
1766385755364661800,6.035661865234375,-0.4659371078014374,-0.18463388085365295,0.1182023361325264
1766385755381624000,6.0526240234375,-1.2075269222259521,0.27290382981300354,-0.5971203446388245
1766385755398586400,6.06958642578125,-1.3211477994918823,0.31810784339904785,1.2977821826934814
1766385755415549000,6.086548828125,-1.2044726610183716,0.3205513060092926,0.1127045527100563
1766385755432511000,6.103510986328125,-1.1311688423156738,0.2380845546722412,-0.6472112536430359
1766385755449473300,6.120473388671875,-1.1910336017608643,0.2961167097091675,-0.4511236250400543
1766385755466435600,6.137435546875,-1.4219404458999634,0.3266599476337433,0.0412333719432354
1766385755483398000,6.15439794921875,-1.550832986831665,0.3523162603378296,0.46395179629325867
1766385755500360200,6.171360107421875,-1.5263984203338623,0.32421648502349854,0.6789761781692505
1766385755517322800,6.18832275390625,-1.272889494895935,0.3248273432254791,0.7021890878677368
1766385755534285000,6.20528515625,-0.7774781584739685,0.5636754631996155,0.6985238790512085
1766385755551247400,6.222247314453125,-0.32360562682151794,0.6302597522735596,0.6374374032020569
1766385755568209700,6.239209716796875,-0.10919208079576492,0.8807142972946167,0.5152644515037537
1766385755585172000,6.256171875,-0.2759581506252289,0.9937242865562439,0.48533207178115845
1766385755602134300,6.27313427734375,-0.5807796716690063,1.1030690670013428,0.46944957971572876
1766385755619096600,6.2900966796875,-0.8049670457839966,0.939357340335846,0.3130682110786438
1766385755636059000,6.307058837890625,-0.7860302329063416,0.7023417949676514,0.08765909820795059
1766385755653021200,6.324021240234375,-0.47693267464637756,0.6644681692123413,-0.03817904740571976
1766385755669983500,6.3409833984375,-0.3254382014274597,0.4604393243789673,-0.019242240116000175
1766385755686945800,6.35794580078125,-0.2503018379211426,0.4909825623035431,0.008857538923621178
1766385755703908000,6.374908203125,-0.24724751710891724,0.32971426844596863,-0.282524973154068
1766385755720870400,6.391870361328125,-0.07498364895582199,0.16478078067302704,-0.6545416116714478
1766385755737832700,6.408832763671875,0.24083344638347626,-0.10399972647428513,-0.7406735420227051
1766385755754795000,6.425794921875,0.6281217336654663,-0.17974695563316345,-0.38270679116249084
1766385755771757300,6.44275732421875,1.0001384019851685,-0.2793179154396057,0.021685699000954628
1766385755788719600,6.4597197265625,1.2487603425979614,-0.2487746775150299,0.4572322964668274
1766385755805682000,6.476681884765625,1.2200497388839722,-0.1571449637413025,0.6911935210227966
1766385755822644200,6.493644287109375,0.8309288024902344,-0.24144430458545685,0.5134318470954895
1766385755839606500,6.5106064453125,0.57008957862854,-0.12904518842697144,0.019242240116000175
1766385755856568800,6.52756884765625,0.3819431960582733,-0.40026915073394775,-0.1029307171702385
1766385755873531100,6.54453125,0.7191405892372131,-0.15225805342197418,-0.14569124579429626
1766385755890493700,6.56149365234375,1.0050252676010132,-0.47845983505249023,-0.32528549432754517
1766385755907456000,6.5784560546875,1.1094831228256226,-0.4332558512687683,-0.45539969205856323
1766385755924418300,6.595418212890625,0.9091194868087769,-0.502894401550293,-0.6728675365447998
1766385755941380400,6.61238037109375,0.2695440948009491,-0.4540252387523651,-0.9789108037948608
1766385755958343000,6.629343017578125,-0.7744238376617432,-0.4234820008277893,-0.6343830823898315
1766385755975305200,6.64630517578125,-1.0352630615234375,-0.27687445282936096,-0.5409207344055176
1766385755992267500,6.663267578125,-0.9821178317070007,-0.4247037470340729,-0.6215549111366272
1766385756009229800,6.680229736328125,-0.8856012225151062,-0.4857902228832245,-0.5170970559120178
1766385756026192100,6.697192138671875,-1.0975712537765503,-0.35323256254196167,-0.3955349326133728
1766385756043154400,6.714154541015625,-1.2417353391647339,-0.26771149039268494,-0.282524973154068
1766385756060116700,6.73111669921875,-1.3211477994918823,-0.20051635801792145,-0.1383608728647232
1766385756077079000,6.7480791015625,-1.4139991998672485,-0.1773035079240799,-0.08765909820795059
1766385756094041300,6.765041259765625,-1.3681844472885132,-0.07284562289714813,-0.04917461425065994
1766385756111003600,6.782003662109375,-1.1568251848220825,0.1055268943309784,-0.03817904740571976
1766385756127966200,6.79896630859375,-0.6388118267059326,0.20570871233940125,-0.0870482325553894
1766385756144928500,6.815928466796875,-0.18371757864952087,0.034666575491428375,-0.23548837006092072
1766385756161890800,6.832890869140625,-0.13301581144332886,-0.022754713892936707,-0.3643808364868164
1766385756178853000,6.84985302734375,-0.6540834903717041,0.013897174037992954,-0.21777328848838806
1766385756195815400,6.8668154296875,-1.0890191793441772,0.28756460547447205,-0.07971785217523575
1766385756212777700,6.88377783203125,-1.041982650756836,0.37430739402770996,-0.32039856910705566
1766385756229740000,6.900739990234375,-0.7383828163146973,0.3614792227745056,-0.7431169748306274
1766385756246702300,6.917702392578125,-0.4689914286136627,0.38957902789115906,-0.619722306728363
1766385756263664600,6.93466455078125,-0.3987419903278351,0.228921577334404,0.3442223072052002
1766385756280627000,6.951626953125,-0.043829549103975296,0.8978185057640076,1.3478730916976929
1766385756297589500,6.968589599609375,0.12660172581672668,0.8471167087554932,1.1591159105300903
1766385756314551800,6.9855517578125,0.21578797698020935,0.6821832656860352,0.8286380767822266
1766385756331514000,7.00251416015625,0.21639885008335114,0.2906189262866974,0.6685914993286133
1766385756348476400,7.019476318359375,0.29275694489479065,0.4140135943889618,0.7492256760597229
1766385756365438700,7.036438720703125,0.04413498193025589,0.2790125012397766,0.6948586702346802
1766385756382401000,7.053401123046875,-0.2228129357099533,0.4482220411300659,0.7064651250839233
1766385756399363300,7.07036328125,-0.6436987519264221,0.6217076182365417,0.8756746649742126
1766385756416325600,7.08732568359375,-0.7786998748779297,0.7774781584739685,0.8805615901947021
1766385756433288200,7.1042880859375,-0.8849903345108032,0.6772963404655457,0.7571669220924377
1766385756450250500,7.12125048828125,-0.8214604258537292,0.5013672709465027,0.8756746649742126
1766385756467212800,7.138212890625,-0.46227192878723145,0.6455313563346863,1.0406081676483154
1766385756484175000,7.155175048828125,0.1156061589717865,0.7463240623474121,0.8268054723739624
1766385756501137400,7.172137451171875,0.5212203860282898,0.6772963404655457,0.5427533388137817
1766385756518099700,7.189099609375,0.6549997329711914,0.7573196291923523,0.8335250020027161
1766385756535062000,7.20606201171875,0.5853611826896667,0.7524327039718628,1.3710860013961792
1766385756552024600,7.223024658203125,0.7667880058288574,0.8416189551353455,1.497534990310669
1766385756568987000,7.23998681640625,1.0361794233322144,0.8153517842292786,1.1756092309951782
1766385756585949200,7.25694921875,1.1436915397644043,0.8141300082206726,0.869566023349762
1766385756602911500,7.273911376953125,1.1461350917816162,0.8294016718864441,0.664926290512085
1766385756619873800,7.290873779296875,1.2848013639450073,0.8049670457839966,0.6307178735733032
1766385756636836400,7.30783642578125,1.2658644914627075,0.7426588535308838,0.8200859427452087
1766385756653798700,7.324798583984375,1.384372353553772,0.7115047574043274,1.3869684934616089
1766385756670761000,7.341760986328125,1.4973822832107544,0.9069814682006836,1.9733986854553223
1766385756687723300,7.35872314453125,1.326951026916504,1.021213173866272,2.0027201175689697
1766385756704685600,7.375685546875,1.042288064956665,0.864220917224884,1.183550477027893
1766385756721648000,7.392648193359375,0.8547525405883789,0.6455313563346863,0.30634868144989014
1766385756738610400,7.4096103515625,0.9665408134460449,0.6223185062408447,-0.5317577719688416
1766385756755572700,7.42657275390625,0.799774706363678,0.4909825623035431,-1.0375537872314453
1766385756772535000,7.44353515625,0.28848087787628174,0.5960513353347778,-0.8762855529785156
1766385756789497300,7.460497314453125,-0.3584249019622803,0.6155989766120911,-0.3399462401866913
1766385756806460000,7.4774599609375,-0.9552397727966309,0.5361865758895874,-0.04062250629067421
1766385756823422200,7.494422119140625,-1.1659882068634033,0.38041603565216064,-0.3228420317173004
1766385756840384500,7.511384521484375,-0.8904881477355957,0.15500694513320923,-0.9379828572273254
1766385756857346800,7.528346923828125,-0.41095927357673645,-0.06368265300989151,-1.5024219751358032
1766385756874309400,7.545309326171875,-0.24480405449867249,-0.4503600597381592,-1.6862921714782715
1766385756908234000,7.57923388671875,-1.1421644687652588,-0.698371171951294,-0.602007269859314
1766385756925196300,7.5961962890625,-0.9747874736785889,-0.1406516134738922,-0.7699950337409973
1766385756942160000,7.613159912109375,-0.3321577310562134,-1.466839075088501,-1.7223331928253174
1766385756959121200,7.63012109375,-0.291229784488678,-0.9549343585968018,-1.257465124130249
1766385756976083500,7.64708349609375,-0.20082180202007294,-0.6195695996284485,-0.3094030022621155
1766385756993046000,7.6640458984375,-0.208152174949646,-0.4644099473953247,0.43340855836868286
1766385757010008300,7.68100830078125,-0.3724747896194458,-0.48823368549346924,1.2067633867263794
1766385757026970600,7.697970703125,-0.45249807834625244,-0.09544762223958969,1.6099340915679932
1766385757043933000,7.714932861328125,-0.5624537467956543,-0.1510363221168518,1.311832070350647
1766385757060895500,7.7318955078125,-0.669965922832489,-0.15470150113105774,0.7730493545532227
1766385757077857800,7.74885791015625,-0.8965967893600464,-0.18890993297100067,0.4987711012363434
1766385757094820000,7.765820068359375,-1.2307398319244385,-0.18890993297100067,0.6331613659858704
1766385757111782400,7.782782470703125,-1.4231622219085693,-0.07406735420227051,0.7987056970596313
1766385757137226000,7.80822607421875,-1.1733185052871704,-0.02825249545276165,0.49571678042411804
1766385757154188500,7.8251884765625,-0.8532254099845886,-0.10155627131462097,0.1695149689912796
1766385757171150800,7.84215087890625,-0.4182896614074707,0.01695149764418602,-0.057726722210645676
1766385757188113200,7.859113037109375,-0.17455461621284485,0.02672533318400383,-0.17562362551689148
1766385757205075500,7.876075439453125,-0.08231402933597565,0.07315105944871902,-0.12247838824987411
1766385757222038000,7.8930380859375,-0.017562363296747208,0.14278964698314667,0.007024944759905338
1766385757239000300,7.910000244140625,0.02764163166284561,0.14462223649024963,0.035735588520765305
1766385757255963000,7.926962890625,0.07284562289714813,0.1727220118045807,0.06933315098285675
1766385757272925200,7.94392529296875,0.06856957077980042,0.19165882468223572,0.1737910360097885
1766385757289887500,7.960887451171875,0.036804601550102234,0.18677189946174622,0.24281874299049377
1766385757306850000,7.97785009765625,0.01847865991294384,0.15928299725055695,0.19089524447917938
1766385757323812400,7.994812255859375,-0.0102319847792387,0.1409570425748825,0.12247838824987411
1766385757340774700,8.011774658203125,-0.1055268943309784,0.07498364895582199,0.10659590363502502
1766385757357737200,8.0287373046875,-0.2393062710762024,0.004734201822429895,0.0668896958231926
1766385757374699500,8.045699462890624,-0.3205513060092926,-0.08323032408952713,-0.09682206809520721
1766385757391661800,8.062661865234375,-0.25274530053138733,-0.09666935354471207,-0.4889972507953644
1766385757408624400,8.079624267578126,-0.25091269612312317,-0.24327689409255981,-0.9288198947906494
1766385757425586700,8.096586669921875,-0.22098033130168915,-0.20601414144039154,-0.8323032855987549
1766385757442549200,8.11354931640625,-0.2594648003578186,-0.042913250625133514,-0.3704894781112671
1766385757459511600,8.130511474609374,-0.24297146499156952,0.03283398225903511,-0.047952886670827866
1766385757476473900,8.147473876953125,-0.145843967795372,0.009621120058000088,-0.029016077518463135
1766385757493436400,8.1644365234375,-0.14889828860759735,0.01206457894295454,-0.2214384824037552
1766385757510398700,8.181398681640625,-0.3773617148399353,-0.12782345712184906,-0.4370737373828888
1766385757527361000,8.198361083984375,-0.4647153913974762,-0.17547090351581573,-0.33200499415397644
1766385757544323600,8.215323486328124,-0.3119991719722748,-0.12110394239425659,0.04428769648075104
1766385757561286000,8.232285888671875,-0.11163553595542908,-0.08384118974208832,0.35705047845840454
1766385757578248400,8.24924853515625,0.023365577682852745,-0.09666935354471207,0.5598575472831726
1766385757595210800,8.266210693359374,0.17119485139846802,-0.049632761627435684,0.6478220820426941
1766385757612173300,8.28317333984375,0.2646571695804596,-0.08384118974208832,0.630107045173645
1766385757629135600,8.300135498046876,0.26099199056625366,-0.1156061589717865,0.5293143391609192
1766385757646098000,8.317097900390625,0.27137666940689087,-0.19929464161396027,0.5323686599731445
1766385757663060500,8.334060546875,0.4692968726158142,-0.23961171507835388,0.5781835317611694
1766385757680023000,8.35102294921875,0.697760283946991,-0.31352636218070984,0.5995637774467468
1766385757696985300,8.3679853515625,0.8431460857391357,-0.25243985652923584,0.620333194732666
1766385757713947600,8.38494775390625,0.7686206102371216,-0.19929464161396027,0.5549706816673279
1766385757730910200,8.40191015625,0.6042979955673218,-0.2707658112049103,0.2605338394641876
1766385757747872500,8.41887255859375,0.6470585465431213,-0.3819431960582733,-0.08582650125026703
1766385757764835000,8.4358349609375,0.8877392411231995,-0.3721693754196167,-0.1444695144891739
1766385757781797400,8.45279736328125,1.0123556852340698,-0.2328922003507614,0.11087195575237274
1766385757798760000,8.469760009765626,0.8516982197761536,-0.1253799945116043,0.39797839522361755
1766385757815722200,8.48672216796875,0.6745474338531494,-0.016035201027989388,0.3582721948623657
1766385757832684800,8.503684814453125,0.8162680864334106,0.06276635825634003,-0.1591302752494812
1766385757849647000,8.520647216796876,1.1070396900177002,0.08048143237829208,-0.8384119272232056
1766385757866609700,8.537609619140625,1.2805253267288208,0.001679878099821508,-1.2898409366607666
1766385757883572000,8.554572021484375,1.3196206092834473,-0.13759729266166687,-1.385746717453003
1766385757900534500,8.571534423828124,1.4130829572677612,-0.10155627131462097,-1.3014473915100098
1766385757917496800,8.588496826171875,1.4888302087783813,-0.19379685819149017,-1.2348631620407104
1766385757934459400,8.60545947265625,1.4711151123046875,-0.2133445292711258,-1.1572833061218262
1766385757951421700,8.622421630859375,1.3752093315124512,-0.2860374450683594,-1.1731657981872559
1766385757968384300,8.63938427734375,1.2322670221328735,-0.39477136731147766,-1.1352921724319458
1766385757985346600,8.6563466796875,1.3306162357330322,-0.513279139995575,-1.3558143377304077
1766385758002309000,8.67330908203125,1.4912736415863037,-0.5584831237792969,-1.5409064292907715
1766385758019271400,8.690271484375,1.4234676361083984,-0.46257734298706055,-1.369253396987915
1766385758036234000,8.70723388671875,0.9616538882255554,-0.40698865056037903,-0.9288198947906494
1766385758053196300,8.7241962890625,0.521831214427948,-0.439364492893219,-0.7779362797737122
1766385758070158800,8.741158935546874,0.42164942622184753,-0.4332558512687683,-1.0949751138687134
1766385758087121200,8.75812109375,0.5016726851463318,-0.4271472096443176,-1.7247767448425293
1766385758104083700,8.775083740234376,0.531605064868927,-0.45769044756889343,-2.0943498611450195
1766385758121046300,8.79204638671875,0.541989803314209,-0.46135562658309937,-2.079078197479248
1766385758138008600,8.809008544921875,0.5285507440567017,-0.5169443488121033,-1.981339931488037
1766385758154971000,8.825970947265626,0.4130973219871521,-0.5890263915061951,-2.0131049156188965
1766385758171933400,8.842933349609375,0.2848156988620758,-0.42653632164001465,-1.84145188331604
1766385758188896000,8.85989599609375,0.05696314200758934,-0.23594652116298676,-1.5409064292907715
1766385758205858300,8.8768583984375,0.012980876490473747,-0.15958842635154724,-1.3008365631103516
1766385758222820900,8.89382080078125,0.1571449637413025,-0.18035782873630524,-1.0784817934036255
1766385758239783200,8.910783203125,0.4760163724422455,-0.19685117900371552,-0.8811724185943604
1766385758256745700,8.927745849609375,0.8822414875030518,-0.10461059212684631,-0.5427533388137817
1766385758273708300,8.944708251953125,0.9799798130989075,0.37064221501350403,-0.7076868414878845
1766385758290670600,8.961670654296874,0.40149086713790894,0.586888313293457,0.0027488914784044027
1766385758307633200,8.978633056640625,0.0013744457392022014,0.05299251899123192,-0.3906480371952057
1766385758324595500,8.995595458984376,-0.24785839021205902,-0.1406516134738922,-0.3081812858581543
1766385758341558000,9.01255810546875,-0.3455967605113983,0.06582067906856537,-0.11453714966773987
1766385758358520300,9.029520263671875,-0.3065013885498047,0.07009673118591309,0.07422006875276566
1766385758375483000,9.04648291015625,-0.3578140437602997,-0.1876882016658783,-0.06872228533029556
1766385758392445400,9.063445556640625,-0.29367324709892273,-0.5151117444038391,-0.32162031531333923
1766385758409407700,9.08040771484375,-0.01695149764418602,-0.19929464161396027,-0.3277289569377899
1766385758426370300,9.097370361328124,0.6036871075630188,0.13423752784729004,-0.03634645417332649
1766385758443332600,9.11433251953125,0.6837103962898254,0.20631958544254303,0.25503605604171753
1766385758460295200,9.131295166015626,0.3459021747112274,0.04627300798892975,0.09498947113752365
1766385758477257700,9.1482578125,0.1669187992811203,0.10186170041561127,-0.1029307171702385
1766385758494220000,9.165219970703125,0.23228132724761963,0.17944152653217316,-0.10354158282279968
1766385758511182600,9.1821826171875,0.20173808932304382,0.5551233887672424,0.17073670029640198
1766385758528145000,9.199144775390625,0.14309507608413696,0.641866147518158,0.4786125421524048
1766385758545107500,9.216107421875,0.13698641955852509,0.27168211340904236,0.5201513767242432
1766385758562070000,9.233070068359375,0.1467602699995041,0.13240493834018707,0.4920515716075897
1766385758579032300,9.2500322265625,0.23777911067008972,0.1366809904575348,0.620333194732666
1766385758595995000,9.266994873046874,0.011759147047996521,-0.12354740500450134,0.5256491303443909
1766385758612957400,9.28395751953125,-0.3266599476337433,-0.4332558512687683,0.12125665694475174
1766385758629919700,9.300919677734376,-0.04810560122132301,-0.5291616320610046,0.012522728182375431
1766385758646882300,9.31788232421875,1.0435097217559814,-0.5847502946853638,0.5030471682548523
1766385758663844900,9.334844970703125,1.012966513633728,-0.32330018281936646,0.6044507026672363
1766385758680807200,9.35180712890625,0.5749764442443848,0.07498364895582199,0.231212317943573
1766385758697769700,9.368769775390625,0.7967203855514526,0.22220206260681152,0.5684096813201904
1766385758714732300,9.385732177734376,0.7283035516738892,0.18005239963531494,0.6692023873329163
1766385758731694600,9.402694580078125,0.33979353308677673,0.05849030241370201,0.6728675365447998
1766385758748657200,9.4196572265625,-0.15012001991271973,-0.11438442766666412,0.41813695430755615
1766385758765619700,9.43661962890625,-0.4402807950973511,-0.19501857459545135,0.13713914155960083
1766385758782582000,9.45358203125,-0.5282453298568726,-0.29703301191329956,-0.054672397673130035
1766385758799544600,9.470544677734376,-0.34498587250709534,-0.07284562289714813,0.057726722210645676
1766385758816507100,9.487507080078124,-0.03283398225903511,0.11102467030286789,0.2880227565765381
1766385758833469400,9.504469482421875,0.12843431532382965,-0.008093958720564842,0.29474225640296936
1766385758850432000,9.521431884765626,0.337350070476532,-0.1204930767416954,0.42852163314819336
1766385758867394600,9.53839453125,0.4644099473953247,-0.13209950923919678,0.48472121357917786
1766385758884356900,9.55535693359375,0.39965829253196716,-0.07895427197217941,0.43279770016670227
1766385758901319400,9.5723193359375,0.3116937577724457,-0.052076224237680435,0.3484983444213867
1766385758918282000,9.589281982421875,0.2689332067966461,0.07681624591350555,0.2367101013660431
1766385758935244300,9.606244384765626,0.22189663350582123,0.0792597085237503,0.09926552325487137
1766385758952206800,9.623206787109375,-0.005955931730568409,-0.05085449293255806,-0.019242240116000175
1766385758969169200,9.640169189453125,-0.22525638341903687,-0.2078467458486557,-0.05589412897825241
1766385758986131700,9.657131591796874,-0.29856017231941223,-0.21639885008335114,-0.08582650125026703
1766385759003094300,9.67409423828125,-0.24785839021205902,-0.019700389355421066,-0.0766635313630104
1766385759020056600,9.691056640625,-0.06887500733137131,0.08353576064109802,0.007635809946805239
1766385759037019100,9.70801904296875,-0.0010690133785828948,-0.014202605932950974,0.18784092366695404
1766385759053981700,9.724981689453125,0.08811724185943604,-0.02519817277789116,0.19700388610363007
1766385759070944000,9.741944091796874,0.13698641955852509,-0.17058399319648743,0.17134757339954376
1766385759087906600,9.758906494140625,0.05085449293255806,-0.22983787953853607,0.13652828335762024
1766385759104869000,9.775869140625,-0.03588830679655075,-0.25793763995170593,0.11148282140493393
1766385759121831400,9.79283154296875,-0.09697478264570236,-0.2811505198478699,0.006414080038666725
1766385759138794000,9.8097939453125,-0.13912445306777954,-0.16814053058624268,0.22754712402820587
1766385759155756500,9.826756591796874,-0.21426081657409668,-0.1870773434638977,0.3326158821582794
1766385759172719000,9.843718994140625,-0.22708898782730103,-0.2188423126935959,0.3442223072052002
1766385759189681400,9.860681396484376,-0.42684176564216614,-0.39965829253196716,0.4046979248523712
1766385759206644000,9.87764404296875,-0.4738783538341522,-0.4094321131706238,0.13652828335762024
1766385759223606500,9.8946064453125,-0.5148062705993652,-0.0154243353754282,-0.03695731982588768
1766385759240568800,9.91156884765625,-0.2234237939119339,0.7609847784042358,-0.31001389026641846
1766385759257531400,9.928531494140625,-0.17883066833019257,0.16661337018013,-0.713184654712677
1766385759274494000,9.945493896484376,-0.258853942155838,-0.23167046904563904,-0.7211259007453918
1766385759291456500,9.96245654296875,0.06490438431501389,-0.12415826320648193,-0.5390881896018982
1766385759308418800,9.979418701171875,0.3764454126358032,0.07131846249103546,-0.21655155718326569
1766385759325381400,9.99638134765625,0.3324631452560425,-0.017256930470466614,-0.22449280321598053
1766385759342344000,10.013343994140625,0.04413498193025589,-0.16386447846889496,-0.2922987937927246
1766385759359306500,10.030306396484375,-0.1360701322555542,-0.23594652116298676,-0.3075704276561737
1766385759376268800,10.047268798828124,-0.021227551624178886,-0.009315688163042068,-0.16279546916484833
1766385759393231400,10.0642314453125,-0.004123337101191282,0.3058905303478241,0.06811141967773438
1766385759410194000,10.08119384765625,-0.1366809904575348,0.19471314549446106,0.057726722210645676
1766385759427156200,10.09815625,-0.34926193952560425,-0.2078467458486557,0.06017018109560013
1766385759444118800,10.115118896484375,-0.5716167092323303,0.18066325783729553,0.45417797565460205
1766385759461081300,10.132081298828124,-0.3065013885498047,0.05543597787618637,-0.15729768574237823
1766385759478044000,10.1490439453125,0.11743875592947006,-0.04046979174017906,-0.04367683082818985
1766385759495006200,10.166006103515626,0.09850194305181503,-0.052076224237680435,-0.05406153202056885
1766385759511968800,10.18296875,-0.15989385545253754,-0.2084576040506363,-0.21655155718326569
1766385759528931300,10.199931396484375,-0.09880737960338593,-0.28664830327033997,-0.30024003982543945
1766385759545894000,10.216893798828124,0.22678354382514954,-0.04230238497257233,-0.15179990231990814
1766385759562856200,10.233856201171875,0.20906847715377808,-0.19074252247810364,-0.006414080038666725
1766385759579818800,10.25081884765625,0.026419902220368385,-0.3098611533641815,-0.5042688846588135
1766385759596781300,10.26778125,0.06856957077980042,-0.19929464161396027,-0.693026065826416
1766385759613743600,10.28474365234375,0.18341214954853058,-0.0386371985077858,-0.8090903759002686
1766385759630706200,10.3017060546875,0.12354740500450134,0.018784092739224434,-0.6716458201408386
1766385759647668700,10.318668701171875,-0.10063996911048889,0.007177661173045635,-0.4468475878238678
1766385759664631300,10.33563134765625,-0.24724751710891724,-0.08384118974208832,-0.3814850449562073
1766385759681593900,10.35259375,-0.2759581506252289,-0.1571449637413025,-0.4407389461994171
1766385759698556200,10.36955615234375,-0.014508038759231567,-0.04046979174017906,-0.33139413595199585
1766385759715518700,10.386518798828124,0.027030766010284424,0.024892739951610565,-0.210442915558815
1766385759732481300,10.403481201171875,0.020311253145337105,0.09086613357067108,-0.01740964688360691
1766385759749443800,10.42044384765625,0.014813470654189587,0.13484840095043182,0.16340632736682892
1766385759766406100,10.43740625,-0.002290742937475443,0.07742711156606674,0.08521563559770584
1766385759783368700,10.45436865234375,-0.08659008145332336,0.08353576064109802,0.044898562133312225
1766385759800331300,10.471331298828124,-0.06765327602624893,0.03711003437638283,0.025350889191031456
1766385759817293800,10.4882939453125,0.019700389355421066,0.03649916872382164,0.041844237595796585
1766385759834256100,10.505256103515626,0.022754713892936707,0.064598947763443,0.07299833744764328
1766385759851218700,10.52221875,-0.01511890348047018,0.09392046183347702,0.13041962683200836
1766385759868181200,10.53918115234375,-0.013286309316754341,0.05971203371882439,0.07910698652267456
1766385759885143800,10.556143798828124,0.02519817277789116,0.060322895646095276,0.0821613147854805
1766385759902106000,10.573106201171875,-0.04016435891389847,0.03283398225903511,0.06017018109560013
1766385759919068700,10.590068603515626,-0.06215549260377884,0.031612250953912735,0.23304490745067596
1766385759936031200,10.60703125,-0.025503603741526604,0.009010255336761475,0.3393353819847107
1766385759952993800,10.623993896484375,-0.02000582218170166,0.027336198836565018,0.37720900774002075
1766385759969956400,10.640956298828126,-0.18066325783729553,0.04016435891389847,0.4150826036930084
1766385759986918700,10.657918701171875,-0.32849252223968506,-0.10705405473709106,0.4248564541339874
1766385760003881200,10.674881103515625,-0.1928805559873581,-0.21395538747310638,0.4004218578338623
1766385760020843800,10.69184375,-0.003512472379952669,-0.12232567369937897,0.39248061180114746
1766385760037806300,10.708806396484375,-0.0206166859716177,-0.0001527161948615685,0.3484983444213867
1766385760054768600,10.7257685546875,-0.09941824525594711,0.056657709181308746,0.36193737387657166
1766385760071731200,10.742731201171875,-0.2545779049396515,-0.026419902220368385,0.3075704276561737
1766385760088693800,10.75969384765625,-0.20021092891693115,-0.09850194305181503,0.2629773020744324
1766385760105656300,10.77665625,-0.0334448479115963,0.006566796451807022,0.29413139820098877
1766385760122618600,10.79361865234375,-0.027336198836565018,0.0902552679181099,0.3069595396518707
1766385760139581200,10.810581298828126,-0.06154462695121765,0.10369429737329483,0.2764163017272949
1766385760156543700,10.827543701171875,-0.03283398225903511,0.028557928279042244,0.12064579129219055
1766385760173506300,10.84450634765625,0.042913250625133514,-0.008093958720564842,-0.044898562133312225
1766385760190468900,10.86146875,0.141262486577034,0.014508038759231567,-0.3026835024356842
1766385760207431200,10.87843115234375,0.08872810751199722,-0.01847865991294384,-0.5128209590911865
1766385760224393700,10.895393798828126,0.049632761627435684,0.040775224566459656,-0.581848680973053
1766385760241356300,10.912356201171875,0.09850194305181503,0.09758564829826355,-0.36682429909706116
1766385760258318800,10.92931884765625,0.1156061589717865,0.14034618437290192,-0.30451610684394836
1766385760275281400,10.946281494140624,0.1357647031545639,0.13179408013820648,-0.2214384824037552
1766385760292244000,10.963243896484375,0.17852523922920227,0.1262962967157364,-0.044898562133312225
1766385760309206300,10.980206298828126,0.17424917221069336,0.0902552679181099,0.25381430983543396
1766385760326168800,10.9971689453125,0.12965604662895203,0.05482511222362518,0.31551164388656616
1766385760343131400,11.01413134765625,0.08078686892986298,0.02672533318400383,0.33505934476852417
1766385760360094000,11.031093994140624,0.0032070400193333626,0.047494735568761826,0.250149130821228
1766385760377056300,11.04805615234375,-0.02977965772151947,-0.06001746281981468,0.18295399844646454
1766385760394018800,11.065018798828126,0.009315688163042068,-0.11927134543657303,0.2861901521682739
1766385760410981400,11.0819814453125,0.022754713892936707,0.04932733252644539,0.38759371638298035
1766385760427944000,11.09894384765625,0.036804601550102234,0.08048143237829208,0.4877755343914032
1766385760444906500,11.115906494140624,0.026419902220368385,0.001679878099821508,0.23426663875579834
1766385760461869000,11.132869140625,0.017256930470466614,0.044440411031246185,0.1585194170475006
1766385760478831400,11.149831298828126,0.005039634648710489,0.0902552679181099,0.08765909820795059
1766385760495794000,11.1667939453125,0.04780016839504242,0.013286309316754341,-0.035124726593494415
1766385760512756500,11.183756591796875,0.05329795181751251,0.0639880821108818,-0.08399390429258347
1766385760529719000,11.200718994140624,-0.07681624591350555,0.0896444097161293,-0.18112140893936157
1766385760546681600,11.217681640625,-0.1055268943309784,0.10125083476305008,-0.17256930470466614
1766385760563644200,11.23464404296875,0.06490438431501389,0.02000582218170166,-0.06872228533029556
1766385760580606500,11.2516064453125,0.06246092543005943,0.021227551624178886,0.035735588520765305
1766385760597569000,11.268569091796875,0.055741410702466965,0.01695149764418602,0.011300998739898205
1766385760614531600,11.285531494140624,0.04718930274248123,0.015729768201708794,-0.03817904740571976
1766385760631494100,11.302494140625,0.039858926087617874,0.013286309316754341,-0.006414080038666725
1766385760648456700,11.319456787109376,0.03558287397027016,0.012675444595515728,0.02107483521103859
1766385760665419000,11.3364189453125,0.030695954337716103,0.011453714221715927,0.0021380267571657896
1766385760682381600,11.353381591796875,0.02825249545276165,0.013286309316754341,0.024740023538470268
1766385760699344100,11.37034423828125,0.02825249545276165,0.009621120058000088,0.023518294095993042
1766385760716306700,11.387306640625,0.020922118797898293,0.009010255336761475,-0.03329212963581085
1766385760733269200,11.404269287109376,0.016646064817905426,-0.0032070400193333626,-0.06322450190782547
1766385760750231600,11.4212314453125,0.027030766010284424,-0.04474584385752678,-0.39309149980545044
1766385760767194000,11.438194091796875,-0.011453714221715927,0.054214250296354294,-0.5781835317611694
1766385760784156700,11.45515673828125,0.0025961752980947495,-0.02458730712532997,-0.21471896767616272
1766385760801119200,11.472119140625,0.022754713892936707,-0.023976443335413933,-0.11759147047996521
1766385760818081800,11.489081787109376,-0.01695149764418602,0.00045814859913662076,-0.0021380267571657896
1766385760835044400,11.50604443359375,-0.11102467030286789,0.05482511222362518,-0.09560033679008484
1766385760852007000,11.5230068359375,-0.18616104125976562,0.06215549260377884,-0.24220788478851318
1766385760868969200,11.53996923828125,-0.16905683279037476,-0.06734783947467804,-0.3136790692806244
1766385760885931800,11.556931884765625,-0.0951421856880188,-0.1406516134738922,-0.4156934916973114
1766385760902894300,11.573894287109376,-0.047494735568761826,-0.11927134543657303,-0.4517345130443573
1766385760919857000,11.59085693359375,-0.10369429737329483,-0.05085449293255806,-0.34055712819099426
1766385760936819500,11.6078193359375,-0.11896591633558273,-0.02153298258781433,-0.1432477980852127
1766385760953781800,11.62478173828125,-0.07192932814359665,-0.04046979174017906,0.0717766135931015
1766385760970744300,11.641744384765625,-0.1055268943309784,-0.07528908550739288,0.08032871782779694
1766385760987707000,11.658706787109375,-0.15439607203006744,-0.11804962158203125,-0.03023780696094036
1766385761004669400,11.67566943359375,-0.16539163887500763,-0.1253799945116043,-0.022907428443431854
1766385761021632000,11.692632080078125,-0.01511890348047018,-0.03191768378019333,0.2813032269477844
1766385761038594300,11.70959423828125,0.06246092543005943,0.001679878099821508,0.5115992426872253
1766385761055556900,11.726556884765625,0.011759147047996521,0.047494735568761826,0.47067132592201233
1766385761072519400,11.74351953125,-0.09575305134057999,0.09941824525594711,0.26419901847839355
1766385761089482000,11.76048193359375,-0.1513417512178421,0.07192932814359665,0.13652828335762024
1766385761106444500,11.777444580078125,-0.014508038759231567,0.051159925758838654,0.22266021370887756
1766385761123406800,11.79440673828125,0.05513054504990578,0.046883873641490936,0.3497200906276703
1766385761140369400,11.811369384765625,0.05085449293255806,0.07131846249103546,0.3246746361255646
1766385761157332000,11.82833203125,0.011759147047996521,0.10797034949064255,0.2000582218170166
1766385761174294500,11.84529443359375,0.005650499369949102,0.08414662629365921,0.07544180005788803
1766385761191257000,11.862257080078125,0.03375028073787689,0.06276635825634003,0.07055488228797913
1766385761208219600,11.8792197265625,0.05940660089254379,0.030390523374080658,0.14569124579429626
1766385761225182000,11.896181884765625,0.049632761627435684,0.016340631991624832,0.29901832342147827
1766385761242144500,11.91314453125,0.03741546720266342,0.04016435891389847,0.5708531141281128
1766385761259107000,11.930107177734374,-0.003512472379952669,0.04993819445371628,0.7730493545532227
1766385761276069600,11.947069580078125,-0.057268574833869934,0.06765327602624893,1.0131192207336426
1766385761293032200,11.9640322265625,-0.08292489498853683,0.36514443159103394,1.0326669216156006
1766385761309994800,11.980994873046875,0.08384118974208832,0.07559451460838318,-0.4938841760158539
1766385761326957000,11.99795703125,0.03497200831770897,-0.01847865991294384,-1.9917246103286743
1766385761343919600,12.014919677734374,0.05696314200758934,-0.06368265300989151,-1.4370594024658203
1766385761360882200,12.031882080078125,0.036804601550102234,0.02672533318400383,0.24953825771808624
1766385761377844700,12.0488447265625,0.017256930470466614,0.04016435891389847,0.6881392002105713
1766385761394807300,12.065807373046875,0.022754713892936707,0.00045814859913662076,-0.05528326332569122
1766385761411769900,12.082769775390625,0.012980876490473747,-0.0019853105768561363,-0.35705047845840454
1766385761428732400,12.099732421875,0.0154243353754282,0.030390523374080658,0.06322450190782547
1766385761454176000,12.125176025390624,0.01908952370285988,0.019394956529140472,0.011911863461136818
1766385761471138600,12.142138671875,0.014202605932950974,0.021227551624178886,-0.13775001466274261
1766385761488101000,12.15910107421875,0.006872228812426329,0.019394956529140472,0.04001164436340332
1766385761505063700,12.176063720703125,-0.006566796451807022,0.012675444595515728,0.054672397673130035
1766385761522026200,12.193026123046875,-0.027947064489126205,-0.0013744457392022014,0.0009162971982732415
1766385761538988800,12.20998876953125,-0.041386090219020844,-0.0038179049734026194,0.1230892539024353
1766385761555951400,12.226951416015625,-0.05238165333867073,-0.009315688163042068,0.0009162971982732415
1766385761572913700,12.24391357421875,-0.0694858655333519,-0.009315688163042068,-0.12186752259731293
1766385761589876200,12.260876220703125,-0.0798705667257309,-0.0154243353754282,-0.02412915788590908
1766385761606838800,12.2778388671875,-0.0896444097161293,-0.028863361105322838,0.04673115536570549
1766385761623801300,12.29480126953125,-0.09636391699314117,-0.02214384824037552,0.035735588520765305
1766385761640764000,12.311763916015625,-0.10186170041561127,-0.01908952370285988,0.01802051067352295
1766385761657726500,12.3287265625,-0.11346813291311264,-0.012370011769235134,0.047952886670827866
1766385761674688800,12.345688720703125,-0.13179408013820648,-0.009926552884280682,0.14141519367694855
1766385761691651300,12.3626513671875,-0.1519526094198227,0.002290742937475443,0.20922118425369263
1766385761708614000,12.37961376953125,-0.19165882468223572,0.03222311660647392,0.27947062253952026
1766385761725576400,12.396576416015625,-0.15256348252296448,0.025503603741526604,0.26542073488235474
1766385761742539000,12.4135390625,-0.12751802802085876,0.04016435891389847,0.24037529528141022
1766385761759501600,12.43050146484375,-0.12140937149524689,0.05482511222362518,0.3814850449562073
1766385761776464000,12.4474638671875,-0.10674861818552017,0.04810560122132301,0.44929105043411255
1766385761793426400,12.464426513671874,-0.05543597787618637,0.004123337101191282,0.3399462401866913
1766385761810389000,12.481388916015625,-0.0902552679181099,-0.04169152304530144,0.29474225640296936
1766385761827351600,12.4983515625,-0.07192932814359665,-0.01908952370285988,0.13775001466274261
1766385761844314000,12.515314208984375,-0.05238165333867073,0.010842849500477314,-0.022907428443431854
1766385761861276700,12.532276611328125,-0.04321868345141411,0.0102319847792387,-0.11942406743764877
1766385761878239000,12.549239013671874,-0.00045814859913662076,0.0334448479115963,-0.1792888194322586
1766385761895201500,12.566201416015625,0.049632761627435684,0.01695149764418602,-0.14202606678009033
1766385761912164000,12.5831640625,0.06856957077980042,0.0206166859716177,-0.11453714966773987
1766385761929126700,12.600126708984375,0.07712167501449585,0.018173227086663246,-0.04978547990322113
1766385761946089200,12.617089111328125,0.0746782198548317,0.02306014485657215,-0.04062250629067421
1766385761963051800,12.6340517578125,0.06123919412493706,0.022449281066656113,0.04062250629067421
1766385761980014300,12.651014404296875,0.052076224237680435,0.02611446939408779,0.12247838824987411
1766385761996976600,12.6679765625,0.04841103404760361,0.010842849500477314,0.15057817101478577
1766385762013939200,12.684939208984375,0.0386371985077858,-0.011148282326757908,0.14263692498207092
1766385762030901800,12.70190185546875,0.03558287397027016,-0.03802633285522461,0.14202606678009033
1766385762047864300,12.7188642578125,0.014813470654189587,0.01695149764418602,0.06933315098285675
1766385762064827000,12.735826904296875,0.0025961752980947495,0.02611446939408779,0.09987638890743256
1766385762081789400,12.75278955078125,-0.007788525894284248,0.04199695214629173,0.1230892539024353
1766385762098751700,12.769751708984375,-0.004123337101191282,0.09269873052835464,-0.03634645417332649
1766385762115714300,12.78671435546875,0.008704823441803455,0.21426081657409668,-0.2306014597415924
1766385762132676900,12.8036767578125,0.0062613640911877155,0.23258677124977112,-0.21899501979351044
1766385762149639400,12.820639404296875,0.11377356201410294,0.07864884287118912,-0.13958260416984558
1766385762166602000,12.83760205078125,0.14492766559123993,0.0896444097161293,-0.18723005056381226
1766385762183564500,12.854564453125,0.14981459081172943,0.11224640160799026,-0.2519817352294922
1766385762200527000,12.871527099609375,0.04474584385752678,0.11407899856567383,-0.168904110789299
1766385762217489400,12.888489501953124,-0.1104138121008873,0.04566214233636856,-0.09315688163042068
1766385762234452000,12.905451904296875,-0.1464548259973526,0.05787943676114082,-0.15607595443725586
1766385762251414500,12.92241455078125,-0.08659008145332336,0.07192932814359665,-0.2458730787038803
1766385762268377000,12.939377197265625,-0.054214250296354294,0.03527744114398956,-0.3271180987358093
1766385762285339600,12.956339599609375,-0.1104138121008873,0.05238165333867073,-0.3643808364868164
1766385762302302000,12.973302001953124,-0.11346813291311264,0.03222311660647392,-0.3179551064968109
1766385762319264500,12.990264404296875,-0.064598947763443,0.07315105944871902,-0.21655155718326569
1766385762336227000,13.00722705078125,-0.031001387163996696,0.047494735568761826,-0.17806708812713623
1766385762353189600,13.024189697265625,-0.10613775253295898,-0.05818486958742142,-0.15302163362503052
1766385762370152200,13.041152099609375,-0.07070759683847427,-0.03802633285522461,-0.12980876863002777
1766385762387114800,13.05811474609375,-0.1153007298707962,0.031612250953912735,-0.04428769648075104
1766385762404077300,13.075077392578125,-0.27840161323547363,0.027947064489126205,0.0821613147854805
1766385762421039600,13.09203955078125,-0.22036947309970856,-0.1052214577794075,0.13225223124027252
1766385762438002200,13.109002197265625,0.025809036567807198,-0.06490438431501389,0.003359756199643016
1766385762454964700,13.12596484375,0.08689551800489426,-0.04046979174017906,-0.022296564653515816
1766385762471927300,13.14292724609375,0.08200860023498535,0.034666575491428375,0.04550942778587341
1766385762488889900,13.159889892578125,-0.08109229803085327,-0.026419902220368385,0.1389717310667038
1766385762505852200,13.17685205078125,-0.16600249707698822,-0.13454297184944153,0.22876885533332825
1766385762522814700,13.193814697265625,-0.006566796451807022,-0.15042544901371002,0.19272783398628235
1766385762539777300,13.21077734375,0.17791436612606049,-0.13271036744117737,0.16157373785972595
1766385762556739800,13.22773974609375,0.1815795600414276,-0.061850059777498245,0.22388194501399994
1766385762573702400,13.244702392578125,0.07651081681251526,-0.11866047978401184,0.3796524703502655
1766385762590664700,13.261664794921876,0.05818486958742142,-0.18463388085365295,0.40897396206855774
1766385762607627300,13.278627197265624,0.16875138878822327,-0.06123919412493706,0.3075704276561737
1766385762624589800,13.29558984375,0.17852523922920227,0.025503603741526604,0.2214384824037552
1766385762641552400,13.312552490234374,0.07589995115995407,0.021227551624178886,0.2513708472251892
1766385762658515000,13.329514892578125,0.03436114266514778,0.005955931730568409,0.28496840596199036
1766385762675477200,13.346477294921876,0.052687086164951324,-0.0435241162776947,0.21899501979351044
1766385762692439800,13.363439697265624,0.1253799945116043,-0.025809036567807198,0.09682206809520721
1766385762709402400,13.38040234375,0.14798198640346527,-0.03497200831770897,0.047952886670827866
1766385762726365000,13.397364990234376,0.058795735239982605,-0.0001527161948615685,0.06994401663541794
1766385762743327200,13.4143271484375,-0.007177661173045635,0.002290742937475443,0.2208276242017746
1766385762760289800,13.431289794921875,0.045967575162649155,0.012675444595515728,0.19883649051189423
1766385762777252400,13.44825244140625,0.05451968312263489,-0.030695954337716103,0.06627883017063141
1766385762794215000,13.46521484375,0.022754713892936707,-0.030695954337716103,0.010690134018659592
1766385762811177500,13.482177490234376,0.03436114266514778,0.04627300798892975,-0.005192350596189499
1766385762828139800,13.499139892578125,0.0062613640911877155,0.009010255336761475,-0.06872228533029556
1766385762845102300,13.516102294921875,0.0062613640911877155,-0.030085090547800064,-0.16218459606170654
1766385762862065000,13.53306494140625,0.0025961752980947495,-0.049021899700164795,-0.22327107191085815
1766385762879027500,13.55002734375,0.020922118797898293,-0.03497200831770897,-0.15057817101478577
1766385762895989800,13.56698974609375,0.007483093533664942,-0.023976443335413933,-0.07788526266813278
1766385762912952300,13.583952392578125,-0.011453714221715927,-0.02214384824037552,-0.06566796451807022
1766385762929915000,13.600914794921875,-0.03649916872382164,-0.05513054504990578,-0.061391908675432205
1766385762946877400,13.61787744140625,-0.12446369975805283,-0.0948367565870285,-0.10537417232990265
1766385762963839700,13.63483984375,-0.3065013885498047,-0.17791436612606049,-0.04367683082818985
1766385762980802300,13.65180224609375,-0.04505127668380737,-0.0539088174700737,0.04917461425065994
1766385762997764900,13.668764892578125,-0.003512472379952669,-0.07773254066705704,0.10415244847536087
1766385763023208700,13.694208740234375,-0.17333288490772247,-0.14737112820148468,0.03145953640341759
1766385763040171000,13.7111708984375,-0.16416990756988525,-0.1510363221168518,-0.05406153202056885
1766385763057133600,13.728133544921874,-0.13912445306777954,-0.12782345712184906,-0.10965022444725037
1766385763074096000,13.74509619140625,-0.15378521382808685,-0.12721258401870728,-0.13713914155960083
1766385763091058700,13.76205859375,-0.1415679156780243,-0.10827577859163284,-0.1340848207473755
1766385763108021000,13.77902099609375,-0.027947064489126205,-0.06856957077980042,-0.047952886670827866
1766385763124983600,13.795983642578125,0.09056070446968079,-0.022754713892936707,0.02412915788590908
1766385763141946000,13.812946044921874,-0.08597921580076218,0.01206457894295454,-0.18906265497207642
1766385763158908700,13.82990869140625,-0.06826414167881012,0.004123337101191282,-0.09010255336761475
1766385763175871200,13.846871337890626,-0.028557928279042244,0.017562363296747208,0.04917461425065994
1766385763192833500,13.86383349609375,-0.005955931730568409,0.007177661173045635,-0.05528326332569122
1766385763209796000,13.880796142578125,-0.009010255336761475,0.002290742937475443,-0.035124726593494415
1766385763226759400,13.897759521484375,-0.021838415414094925,-0.0001527161948615685,0.011300998739898205
1766385763243721000,13.914720947265625,-0.03649916872382164,-0.010537417605519295,-0.022907428443431854
1766385763260683500,13.93168359375,-0.044440411031246185,-0.008704823441803455,-0.010079269297420979
1766385763277646000,13.94864599609375,-0.04260781779885292,-0.0154243353754282,-0.024740023538470268
1766385763294608600,13.965608642578125,-0.04566214233636856,-0.016646064817905426,-0.025350889191031456
1766385763311571200,13.9825712890625,-0.046883873641490936,-0.016646064817905426,-0.010690134018659592
1766385763328533500,13.999533447265625,-0.046883873641490936,-0.016646064817905426,-0.008246674202382565
1766385763345496000,14.01649609375,-0.0487164668738842,-0.017256930470466614,-0.005803215317428112
1766385763362458600,14.033458740234375,-0.05238165333867073,-0.016035201027989388,-0.00946840364485979
1766385763379421200,14.050421142578125,-0.057268574833869934,-0.012980876490473747,-0.0204639695584774
1766385763396383500,14.067383544921874,-0.060322895646095276,-0.016646064817905426,-0.008857538923621178
1766385763413346000,14.084345947265625,-0.057268574833869934,-0.020922118797898293,-0.02107483521103859
1766385763430308600,14.10130859375,-0.04627300798892975,-0.01359174121171236,-0.014966187067329884
1766385763447271200,14.118271240234375,-0.03588830679655075,-0.0032070400193333626,-0.013133592903614044
1766385763464233500,14.1352333984375,-0.016340631991624832,-0.008704823441803455,-0.012522728182375431
1766385763481196000,14.152196044921874,-0.002290742937475443,-0.0013744457392022014,0.0027488914784044027
1766385763498158600,14.16915869140625,0.0013744457392022014,-0.0038179049734026194,0.010690134018659592
1766385763515121200,14.18612109375,-0.03649916872382164,-0.0019853105768561363,0.016187917441129684
1766385763532083500,14.20308349609375,0.0013744457392022014,0.005955931730568409,0.011911863461136818
1766385763549046000,14.2200458984375,0.033139415085315704,0.007788525894284248,-0.023518294095993042
1766385763566008600,14.237008544921874,0.05146535858511925,0.014508038759231567,-0.00946840364485979
1766385763582971000,14.253970947265625,0.06307178735733032,0.018173227086663246,-0.007024944759905338
1766385763599933400,14.270933349609376,0.06795870512723923,0.0334448479115963,0.008857538923621178
1766385763616896000,14.28789599609375,0.06795870512723923,0.03955349326133728,0.011911863461136818
1766385763633858600,14.304858642578125,0.0691804364323616,0.02977965772151947,0.008246674202382565
1766385763650820900,14.32182080078125,0.07040216773748398,0.017562363296747208,0.010690134018659592
1766385763667783400,14.338783447265625,0.06612611562013626,0.019394956529140472,0.0027488914784044027
1766385763684746000,14.35574609375,0.0642935186624527,0.02367101050913334,0.025961752980947495
1766385763701708500,14.37270849609375,0.0642935186624527,0.04810560122132301,-0.004581485874950886
1766385763718670800,14.3896708984375,0.07834340631961823,0.027947064489126205,-0.03756818547844887
1766385763735633400,14.40663330078125,0.07773254066705704,0.015729768201708794,-0.006414080038666725
1766385763752596000,14.423595947265625,0.05940660089254379,0.0206166859716177,-0.023518294095993042
1766385763769558300,14.440558349609375,0.04718930274248123,0.021227551624178886,-0.023518294095993042
1766385763786520800,14.457520751953124,0.04841103404760361,0.027947064489126205,0.004581485874950886
1766385763803483400,14.4744833984375,0.05513054504990578,0.012675444595515728,0.015577051788568497
1766385763820446000,14.491446044921876,0.05451968312263489,0.01206457894295454,0.0412333719432354
1766385763837408300,14.508408203125,0.052076224237680435,0.015729768201708794,0.013744457624852657
1766385763854370800,14.525370849609375,0.04718930274248123,0.02367101050913334,0.011911863461136818
1766385763871333400,14.54233349609375,0.03741546720266342,0.031001387163996696,0.0009162971982732415
1766385763888295700,14.559295654296875,0.030085090547800064,0.012675444595515728,-0.006414080038666725
1766385763905258500,14.576258544921876,0.03191768378019333,-0.0013744457392022014,-0.015577051788568497
1766385763922220800,14.593220703125,0.03436114266514778,-0.0154243353754282,0.03756818547844887
1766385763939183400,14.610183349609375,-0.003512472379952669,-0.0025961752980947495,-0.0027488914784044027
1766385763956145700,14.627145751953124,-0.028557928279042244,-0.009926552884280682,0.010690134018659592
1766385763973108200,14.644108154296875,-0.040775224566459656,-0.008704823441803455,-0.011300998739898205
1766385763990070800,14.66107080078125,-0.04505127668380737,0.004123337101191282,-0.008857538923621178
1766385764007033000,14.678033203125,-0.051159925758838654,-0.005650499369949102,0.015577051788568497
1766385764023995600,14.69499560546875,-0.05604684352874756,-0.030085090547800064,0.10170898586511612
1766385764040958200,14.711958251953124,-0.027336198836565018,-0.049632761627435684,0.07971785217523575
1766385764057920800,14.728920654296875,0.14431680738925934,-0.07406735420227051,-0.013744457624852657
1766385764074883000,14.745883056640626,0.2652680277824402,-0.07651081681251526,-0.10415244847536087
1766385764091845600,14.762845703125,-0.10125083476305008,-0.011148282326757908,-0.1737910360097885
1766385764108808000,14.779807861328125,-0.13912445306777954,-0.016035201027989388,-0.10231985151767731
1766385764125770500,14.7967705078125,-0.17088942229747772,-0.07895427197217941,0.1182023361325264
1766385764142733000,14.813733154296875,-0.2124282270669937,-0.08200860023498535,0.11759147047996521
1766385764159695600,14.830695556640626,-0.22098033130168915,-0.06062832847237587,0.003970621153712273
1766385764176658200,14.847658203125,-0.20570871233940125,-0.036193739622831345,-0.05406153202056885
1766385764193620500,14.864620361328125,-0.18127411603927612,-0.04230238497257233,-0.048563748598098755
1766385764210583000,14.8815830078125,-0.22159120440483093,-0.0435241162776947,-0.0015271619195118546
1766385764227545300,14.89854541015625,-0.26679518818855286,-0.06673697382211685,-0.010079269297420979
1766385764244508000,14.9155078125,-0.30283620953559875,-0.08567378669977188,0.003359756199643016
1766385764261470500,14.932470458984374,-0.3364337682723999,-0.09605848789215088,-0.00946840364485979
1766385764278432800,14.949432861328125,-0.3620901107788086,-0.08750637620687485,-0.02779434807598591
1766385764295395300,14.966395263671876,-0.37552911043167114,-0.07284562289714813,-0.018631376326084137
1766385764312358000,14.98335791015625,-0.3718639314174652,-0.07345648854970932,0.010690134018659592
1766385764329320400,15.000320556640625,-0.3718639314174652,-0.09666935354471207,0.0027488914784044027
1766385764346282800,15.01728271484375,-0.3871355652809143,-0.12476912885904312,0.012522728182375431
1766385764363245300,15.034245361328125,-0.41462448239326477,-0.1510363221168518,0.03634645417332649
1766385764380207900,15.051207763671876,-0.45127636194229126,-0.16447533667087555,0.003359756199643016
1766385764397170200,15.068170166015625,-0.48365217447280884,-0.16081015765666962,0.008246674202382565
1766385764414132700,15.0851328125,-0.5111411213874817,-0.1461493968963623,-0.05039634555578232
1766385764431095000,15.102094970703124,-0.5386300086975098,-0.13454297184944153,-0.0412333719432354
1766385764448057600,15.1190576171875,-0.559399425983429,-0.14431680738925934,-0.019853105768561363
1766385764465020200,15.136020263671876,-0.5636754631996155,-0.1718057245016098,0.03145953640341759
1766385764481982500,15.152982421875,-0.5765036344528198,-0.18952079117298126,0.011911863461136818
1766385764498945000,15.169945068359375,-0.5991056561470032,-0.1974620372056961,0.010690134018659592
1766385764515907600,15.186907470703124,-0.6168206930160522,-0.20967933535575867,-0.0021380267571657896
1766385764532870100,15.2038701171875,-0.6498073935508728,-0.19929464161396027,-0.006414080038666725
1766385764549832400,15.22083251953125,-0.6950113773345947,-0.19440771639347076,-0.0204639695584774
1766385764566795000,15.237794921875,-0.7328850030899048,-0.2029598206281662,-0.04367683082818985
1766385764583757300,15.25475732421875,-0.7225003242492676,-0.20723587274551392,0.06200277432799339
1766385764600720000,15.271719970703124,-0.708450436592102,-0.25121814012527466,0.012522728182375431
1766385764617682400,15.288682373046875,-0.7371610999107361,-0.25243985652923584,0.06872228533029556
1766385764634644700,15.305644775390626,-0.7780889868736267,-0.2536616027355194,-0.007635809946805239
1766385764651607300,15.322607177734374,-0.8080213665962219,-0.25610506534576416,0.0009162971982732415
1766385764668569600,15.339569580078125,-0.8342885971069336,-0.2597702443599701,-0.03634645417332649
1766385764685532200,15.3565322265625,-0.8538362383842468,-0.264046311378479,-0.03390299528837204
1766385764702494700,15.37349462890625,-0.8776599764823914,-0.2799287736415863,-0.03023780696094036
1766385764719457300,15.390457275390625,-0.9039271473884583,-0.2860374450683594,-0.00946840364485979
1766385764736419600,15.407419677734374,-0.9234748482704163,-0.2237292230129242,-0.12431098520755768
1766385764753382100,15.424382080078125,-0.9271399974822998,-0.23655737936496735,0.22999058663845062
1766385764770344700,15.4413447265625,-0.9137009978294373,-0.28848087787628174,-0.09498947113752365
1766385764787307000,15.45830712890625,-0.939357340335846,-0.24755294620990753,0.10903936624526978
1766385764804269600,15.47526953125,-0.9472985863685608,-0.2897026240825653,-0.005192350596189499
1766385764821231900,15.49223193359375,-0.966235339641571,-0.28176137804985046,-0.000305432389723137
1766385764838194400,15.5091943359375,-0.9772309064865112,-0.30253079533576965,0.010690134018659592
1766385764855157000,15.526156982421876,-0.9802852272987366,-0.3110828995704651,-0.032681263983249664
1766385764872119300,15.543119384765625,-0.9692896604537964,-0.2897026240825653,0.000305432389723137
1766385764889081900,15.560081787109375,-0.9405790567398071,-0.2799287736415863,0.01802051067352295
1766385764906044400,15.57704443359375,-0.9173662066459656,-0.2652680277824402,-0.04306596517562866
1766385764923006700,15.5940068359375,-0.893542468547821,-0.22739441692829132,-0.10537417232990265
1766385764939969300,15.61096923828125,-0.8141300082206726,-0.20357069373130798,0.061391908675432205
1766385764956931600,15.627931640625,-0.7365502119064331,-0.24999640882015228,-0.11575887352228165
1766385764973894100,15.64489404296875,-0.7194460034370422,-0.17424917221069336,0.13164135813713074
1766385764990856700,15.661856689453124,-0.6956222653388977,-0.19685117900371552,-0.04245510324835777
1766385765007819000,15.678819091796875,-0.6858484148979187,-0.16508620977401733,0.06322450190782547
1766385765024781600,15.695781494140626,-0.671187698841095,-0.16081015765666962,-0.005803215317428112
1766385765041744000,15.712743896484374,-0.6583595275878906,-0.15286891162395477,0.010690134018659592
1766385765058706400,15.72970654296875,-0.6382009983062744,-0.14920371770858765,0.0204639695584774
1766385765075669000,15.7466689453125,-0.6174315810203552,-0.15225805342197418,0.012522728182375431
1766385765092631300,15.76363134765625,-0.5942187309265137,-0.15531237423419952,0.003359756199643016
1766385765109593900,15.78059375,-0.5661189556121826,-0.14859285950660706,0.008246674202382565
1766385765126556200,15.79755615234375,-0.5227475166320801,-0.14492766559123993,0.003970621153712273
1766385765143518700,15.814518798828125,-0.4744892120361328,-0.1418733447790146,-0.0021380267571657896
1766385765160481300,15.831481201171876,-0.4225656986236572,-0.12660172581672668,-0.007635809946805239
1766385765177443600,15.848443603515625,-0.3724747896194458,-0.11377356201410294,-0.00946840364485979
1766385765194406100,15.86540625,-0.32421648502349854,-0.09850194305181503,-0.007024944759905338
1766385765211368400,15.882368408203124,-0.28206682205200195,-0.09850194305181503,-0.014966187067329884
1766385765228331000,15.8993310546875,-0.24785839021205902,-0.04657844081521034,-0.03329212963581085
1766385765245293600,15.91629345703125,-0.20570871233940125,-0.026419902220368385,0.02412915788590908
1766385765262255900,15.933255859375,-0.17027856409549713,-0.04046979174017906,0.005803215317428112
1766385765279218400,15.950218505859375,-0.1562286615371704,-0.023365577682852745,-0.0009162971982732415
1766385765296180700,15.9671806640625,-0.13362666964530945,-0.027030766010284424,0.013744457624852657
1766385765313143300,15.984143310546875,-0.11468986421823502,-0.016646064817905426,-0.013133592903614044
1766385765330105600,16.001105712890624,-0.064598947763443,-0.0038179049734026194,0.025961752980947495
1766385765347068200,16.018068115234374,0.0001527161948615685,0.011453714221715927,0.014966187067329884
1766385765364030700,16.03503076171875,0.049021899700164795,0.02672533318400383,0.015577051788568497
1766385765380993000,16.051992919921876,0.026419902220368385,0.022449281066656113,0.03940077871084213
1766385765397955600,16.06895556640625,-0.012675444595515728,0.007788525894284248,0.04306596517562866
1766385765414918000,16.08591796875,-0.06337722390890121,-0.0007635809597559273,0.025350889191031456
1766385765431880400,16.10288037109375,-0.06704241037368774,-0.011148282326757908,0.038789913058280945
1766385765448842800,16.1198427734375,-0.07131846249103546,-0.007483093533664942,0.028405211865901947
1766385765465805300,16.136805419921874,-0.09208786487579346,-0.007483093533664942,0.014966187067329884
1766385765482768000,16.153767822265625,-0.11407899856567383,-0.02764163166284561,0.0027488914784044027
1766385765499730200,16.170730224609375,-0.1256854236125946,-0.03558287397027016,0.015577051788568497
1766385765516692700,16.187692626953126,-0.13179408013820648,-0.04230238497257233,0.016798781231045723
1766385765533655000,16.204655029296877,-0.12935061752796173,-0.029474224895238876,0.029016077518463135
1766385765550617600,16.22161767578125,-0.11652245372533798,-0.029474224895238876,0.02718348242342472
1766385765567580200,16.238580078125,-0.10369429737329483,-0.02153298258781433,0.025350889191031456
1766385765584542500,16.25554248046875,-0.09208786487579346,-0.017867794260382652,0.041844237595796585
1766385765601505000,16.272505126953124,-0.09636391699314117,-0.02519817277789116,0.0204639695584774
1766385765618467300,16.28946728515625,-0.10735948383808136,-0.03436114266514778,0.03390299528837204
1766385765635429600,16.3064296875,-0.12202023714780807,-0.052076224237680435,0.03145953640341759
1766385765652392200,16.32339208984375,-0.14340050518512726,-0.05635227635502815,-0.008857538923621178
1766385765669354800,16.340354736328123,-0.1715002804994583,-0.05818486958742142,0.02718348242342472
1766385765686317000,16.357317138671874,-0.1971566081047058,-0.07040216773748398,0.0009162971982732415
1766385765703279600,16.374279541015625,-0.22220206260681152,-0.08078686892986298,0.016798781231045723
1766385765720242000,16.391241943359375,-0.24113887548446655,-0.09544762223958969,0.0021380267571657896
1766385765737204500,16.40820458984375,-0.26190826296806335,-0.10216713696718216,0.010690134018659592
1766385765754167000,16.4251669921875,-0.2698495090007782,-0.10338886082172394,0.0015271619195118546
1766385765771129300,16.44212939453125,-0.2741255760192871,-0.09117157012224197,-0.008857538923621178
1766385765788092000,16.459091796875,-0.2680169343948364,-0.07651081681251526,-0.004581485874950886
1766385765805054200,16.47605419921875,-0.25641047954559326,-0.07040216773748398,0.03145953640341759
1766385765822016500,16.4930166015625,-0.24297146499156952,-0.07406735420227051,0.048563748598098755
1766385765838979000,16.50997900390625,-0.249690979719162,-0.06551524996757507,0.07849612087011337
1766385765855941400,16.52694140625,-0.24297146499156952,-0.09300415962934494,0.13103049993515015
1766385765872904000,16.543904052734376,-0.2551887631416321,-0.10338886082172394,0.10598503798246384
1766385765889866500,16.560866455078123,-0.27290382981300354,-0.11194097250699997,0.08643736690282822
1766385765906828800,16.577828857421874,-0.29367324709892273,-0.04657844081521034,0.04734202101826668
1766385765923791400,16.594791259765625,-0.28817546367645264,-0.10399972647428513,0.11575887352228165
1766385765940753700,16.611753662109376,-0.2948949635028839,-0.1259908676147461,0.09132428467273712
1766385765957716200,16.62871630859375,-0.3107774555683136,-0.13942988216876984,0.13225223124027252
1766385765974678500,16.645678466796873,-0.31383177638053894,-0.17119485139846802,0.09865466505289078
1766385765991641000,16.66264111328125,-0.31810784339904785,-0.16019928455352783,0.10537417232990265
1766385766008603400,16.679603271484375,-0.30711227655410767,-0.17424917221069336,0.08155044913291931
1766385766025566000,16.69656591796875,-0.3016144931316376,-0.14981459081172943,0.03756818547844887
1766385766042528300,16.7135283203125,-0.2942841053009033,-0.12293653935194016,-0.0027488914784044027
1766385766059490800,16.73049072265625,-0.2802342176437378,-0.09056070446968079,-0.05833758786320686
1766385766076453000,16.747453125,-0.25274530053138733,-0.07040216773748398,-0.05528326332569122
1766385766093415700,16.764415771484376,-0.22525638341903687,-0.04841103404760361,-0.0461202897131443
1766385766110378000,16.7813779296875,-0.19898919761180878,-0.06795870512723923,-0.01435532234609127
1766385766127340500,16.798340576171874,-0.1776089370250702,-0.07345648854970932,0.019853105768561363
1766385766144302800,16.815302734375,-0.16661337018013,-0.08078686892986298,0.041844237595796585
1766385766161265400,16.832265380859376,-0.17027856409549713,-0.0691804364323616,0.014966187067329884
1766385766178227700,16.849227783203126,-0.16905683279037476,-0.030695954337716103,-0.032681263983249664
1766385766195190300,16.866190185546873,-0.14401137828826904,-0.0025961752980947495,-0.05528326332569122
1766385766212152600,16.883152587890624,-0.11652245372533798,0.0102319847792387,-0.07299833744764328
1766385766229115100,16.900115234375,-0.10797034949064255,0.0383317656815052,-0.10659590363502502
1766385766246077400,16.917077392578125,-0.08353576064109802,0.02916879393160343,-0.19883649051189423
1766385766263040000,16.9340400390625,-0.08231402933597565,0.05604684352874756,-0.1536324918270111
1766385766280002300,16.951002197265623,-0.0896444097161293,0.06704241037368774,-0.2868010103702545
1766385766296964900,16.96796484375,-0.0847574844956398,0.1519526094198227,-0.21899501979351044
1766385766313927200,16.98492724609375,-0.050549060106277466,0.05238165333867073,-0.005803215317428112
1766385766330889700,17.0018896484375,-0.06215549260377884,0.040775224566459656,-0.06566796451807022
1766385766347852000,17.01885205078125,-0.0951421856880188,-0.0435241162776947,0.010079269297420979
1766385766364814600,17.035814697265625,-0.11957678198814392,-0.011759147047996521,0.1334739476442337
1766385766381777000,17.05277685546875,-0.11652245372533798,-0.029474224895238876,-0.08460476994514465
1766385766398739500,17.069739501953126,-0.11774418503046036,-0.011759147047996521,0.008246674202382565
1766385766415701800,17.08670166015625,-0.10735948383808136,-0.01359174121171236,-0.06933315098285675
1766385766432664300,17.103664306640624,-0.10613775253295898,0.011453714221715927,-0.0821613147854805
1766385766449626600,17.120626708984375,-0.09086613357067108,0.008399390615522861,-0.06933315098285675
1766385766466589200,17.137589111328126,-0.05482511222362518,0.0206166859716177,0.04917461425065994
1766385766483551500,17.154551513671876,-0.031001387163996696,0.004123337101191282,-0.0412333719432354
1766385766500513800,17.171513671875,-0.037720900028944016,-0.008704823441803455,0.18600831925868988
1766385766517476400,17.188476318359374,-0.018784092739224434,-0.029474224895238876,0.0204639695584774
1766385766534439000,17.20543896484375,-0.009010255336761475,-0.0013744457392022014,0.010079269297420979
1766385766551401200,17.222401123046875,0.0019853105768561363,0.028557928279042244,0.01802051067352295
1766385766568363500,17.239363525390626,0.023365577682852745,0.03894263133406639,-0.054672397673130035
1766385766585326000,17.256326171875,0.036193739622831345,0.04260781779885292,-0.006414080038666725
1766385766602288400,17.273288330078124,0.030085090547800064,0.027947064489126205,0.006414080038666725
1766385766619251000,17.2902509765625,0.023365577682852745,0.005345067009329796,0.01802051067352295
1766385766636213200,17.307213134765625,0.016035201027989388,-0.0025961752980947495,0.032681263983249664
1766385766653175800,17.32417578125,0.023365577682852745,-0.02519817277789116,-0.024740023538470268
1766385766670138000,17.34113818359375,0.0435241162776947,0.03711003437638283,-0.02779434807598591
1766385766687100700,17.3581005859375,0.04169152304530144,0.08170316368341446,0.028405211865901947
1766385766704063000,17.37506298828125,0.04657844081521034,0.018173227086663246,0.10170898586511612
1766385766721025500,17.392025634765623,0.03802633285522461,0.024281874299049377,-0.0021380267571657896
1766385766737987800,17.40898779296875,0.04169152304530144,0.009621120058000088,0.07788526266813278
1766385766754950100,17.4259501953125,0.04535670951008797,0.009621120058000088,-0.016798781231045723
1766385766771912700,17.44291259765625,0.04535670951008797,0.024281874299049377,-0.016187917441129684
1766385766788875300,17.459875244140626,0.05146535858511925,0.013286309316754341,-0.06627883017063141
1766385766805837600,17.476837646484373,0.052076224237680435,0.002290742937475443,-0.019242240116000175
1766385766822800000,17.4937998046875,0.04657844081521034,-0.0032070400193333626,-0.026572618633508682
1766385766839762400,17.510762451171875,0.036804601550102234,0.0010690133785828948,0.01435532234609127
1766385766856724700,17.527724853515625,0.039858926087617874,-0.005039634648710489,0.000305432389723137
1766385766873687300,17.544687255859376,0.042913250625133514,0.006566796451807022,0.0015271619195118546
1766385766890649600,17.561649658203127,0.04780016839504242,0.015729768201708794,-0.03817904740571976
1766385766907612000,17.57861181640625,0.03191768378019333,0.015729768201708794,-0.04001164436340332
1766385766924574500,17.595574462890625,-0.005955931730568409,0.013897174037992954,-0.01435532234609127
1766385766941536800,17.612536865234375,-0.0334448479115963,0.013286309316754341,-0.008857538923621178
1766385766958499300,17.629499267578126,-0.03283398225903511,0.002901607658714056,0.05100720748305321
1766385766975461600,17.646461669921877,-0.007177661173045635,-0.005650499369949102,0.012522728182375431
1766385766992424200,17.663424072265624,0.030695954337716103,-0.027030766010284424,0.1279761642217636
1766385767009386500,17.680386474609374,0.04169152304530144,-0.02153298258781433,0.044898562133312225
1766385767026348800,17.697348876953125,0.03252854943275452,-0.01908952370285988,0.03940077871084213
1766385767043311400,17.714311279296876,0.02214384824037552,-0.025809036567807198,-0.011300998739898205
1766385767060273700,17.731273681640626,0.017867794260382652,-0.004428769461810589,-0.008246674202382565
1766385767077236200,17.748236328125,0.017256930470466614,-0.004428769461810589,-0.03329212963581085
1766385767094198500,17.765198486328124,0.009315688163042068,-0.005039634648710489,0.005192350596189499
1766385767111161000,17.7821611328125,-0.00045814859913662076,-0.008704823441803455,-0.010690134018659592
1766385767128123400,17.799123291015626,-0.004123337101191282,-0.011759147047996521,0.008857538923621178
1766385767145086000,17.8160859375,-0.005955931730568409,-0.016035201027989388,0.016798781231045723
1766385767162048300,17.83304833984375,-0.003512472379952669,-0.014813470654189587,0.025961752980947495
1766385767179010600,17.850010498046874,0.005039634648710489,-0.007483093533664942,0.016187917441129684
1766385767195973000,17.86697314453125,0.014813470654189587,-0.0013744457392022014,0.01435532234609127
1766385767212935400,17.883935302734375,0.016646064817905426,0.007788525894284248,0.003970621153712273
1766385767229897700,17.900897705078126,0.011759147047996521,0.013286309316754341,0.006414080038666725
1766385767246860300,17.9178603515625,0.014202605932950974,0.013897174037992954,0.008246674202382565
1766385767263822800,17.93482275390625,0.020311253145337105,0.009010255336761475,0.01435532234609127
1766385767280785200,17.95178515625,0.022754713892936707,0.013286309316754341,0.013744457624852657
1766385767297747500,17.96874755859375,0.014202605932950974,0.009010255336761475,0.016798781231045723
1766385767314710000,17.9857099609375,-0.001679878099821508,0.0010690133785828948,0.010690134018659592
1766385767331672300,18.00267236328125,-0.011453714221715927,-0.008704823441803455,0.00946840364485979
1766385767348634600,18.019634521484374,-0.02000582218170166,-0.01908952370285988,-0.003359756199643016
1766385767365597200,18.03659716796875,-0.034666575491428375,-0.022754713892936707,-0.005803215317428112
1766385767382559700,18.053559814453124,-0.0487164668738842,-0.033139415085315704,-0.007024944759905338
1766385767399522000,18.07052197265625,-0.0639880821108818,-0.05818486958742142,0.003359756199643016
1766385767416484400,18.087484375,-0.0743727833032608,-0.06979130208492279,-0.07788526266813278
1766385767433447000,18.104447021484376,-0.10919208079576492,0.005955931730568409,-0.019242240116000175
1766385767450409200,18.1214091796875,-0.09697478264570236,-0.058795735239982605,0.03023780696094036
1766385767467371500,18.13837158203125,-0.09575305134057999,-0.05329795181751251,-0.0021380267571657896
1766385767484334000,18.155333984375,-0.09269873052835464,-0.052687086164951324,0.041844237595796585
1766385767501296400,18.17229638671875,-0.09575305134057999,-0.05696314200758934,-0.008857538923621178
1766385767518259000,18.189259033203125,-0.09636391699314117,-0.06551524996757507,-0.0015271619195118546
1766385767535221200,18.20622119140625,-0.1049160286784172,-0.0642935186624527,-0.041844237595796585
1766385767552183800,18.223183837890623,-0.10308343172073364,-0.061850059777498245,-0.032070402055978775
1766385767569146000,18.24014599609375,-0.09697478264570236,-0.06734783947467804,-0.04428769648075104
1766385767586108400,18.2571083984375,-0.09941824525594711,-0.05329795181751251,-0.02107483521103859
1766385767603071000,18.274071044921875,-0.09941824525594711,-0.04413498193025589,-0.013744457624852657
1766385767620033300,18.291033203125,-0.07315105944871902,-0.03558287397027016,-0.013744457624852657
1766385767636995600,18.30799560546875,-0.054214250296354294,-0.026419902220368385,-0.015577051788568497
1766385767653958100,18.324958251953124,-0.027336198836565018,0.005955931730568409,-0.15729768574237823
1766385767670920400,18.34192041015625,-0.02306014485657215,-0.006872228812426329,-0.22754712402820587
1766385767687883000,18.358883056640625,-0.024892739951610565,-0.004428769461810589,0.09315688163042068
1766385767704845300,18.37584521484375,-0.0206166859716177,-0.042913250625133514,-0.13469567894935608
1766385767721808000,18.392807861328127,-0.060933761298656464,-0.017256930470466614,-0.0009162971982732415
1766385767738770200,18.409770263671874,-0.07315105944871902,-0.02519817277789116,-0.09071341902017593
1766385767755732500,18.426732421875,-0.07742711156606674,-0.023365577682852745,-0.06505709886550903
1766385767772695000,18.443695068359375,-0.09575305134057999,-0.020311253145337105,-0.09682206809520721
1766385767789657300,18.4606572265625,-0.10797034949064255,-0.03802633285522461,-0.08338304609060287
1766385767806619600,18.47761962890625,-0.11407899856567383,-0.0539088174700737,-0.06261363625526428
1766385767823582200,18.494582275390623,-0.12263110280036926,-0.07223475724458694,-0.04428769648075104
1766385767840544500,18.51154443359375,-0.12446369975805283,-0.10583232343196869,-0.008857538923621178
1766385767857506800,18.5285068359375,-0.11591159552335739,-0.09178243577480316,-0.14752385020256042
1766385767874469400,18.545469482421876,-0.12140937149524689,0.01206457894295454,-0.05100720748305321
1766385767891432000,18.562431884765626,-0.0694858655333519,-0.029474224895238876,-0.022296564653515816
1766385767908394000,18.57939404296875,-0.04016435891389847,-0.009315688163042068,-0.12980876863002777
1766385767925356500,18.5963564453125,-0.018784092739224434,0.010842849500477314,0.010690134018659592
1766385767942319000,18.613319091796875,0.0019853105768561363,0.008399390615522861,-0.07849612087011337
1766385767959281400,18.630281494140625,0.0062613640911877155,0.009621120058000088,-0.008246674202382565
1766385767976243700,18.64724365234375,-0.002290742937475443,0.007788525894284248,-0.03756818547844887
1766385767993206300,18.664206298828127,-0.013897174037992954,0.007788525894284248,-0.03390299528837204
1766385768010168600,18.68116845703125,-0.024892739951610565,-0.0001527161948615685,-0.011300998739898205
1766385768027131000,18.698130859375,-0.034666575491428375,-0.006872228812426329,-0.011300998739898205
1766385768044093400,18.715093505859375,-0.04505127668380737,-0.025809036567807198,-0.008246674202382565
1766385768061055700,18.7320556640625,-0.053603384643793106,-0.039858926087617874,-0.004581485874950886
1766385768078018000,18.74901806640625,-0.05787943676114082,-0.04413498193025589,0.028405211865901947
1766385768094980600,18.765980712890624,-0.0591011680662632,-0.05085449293255806,-0.0015271619195118546
1766385768111943000,18.78294287109375,-0.057268574833869934,-0.05329795181751251,-0.03390299528837204
1766385768128905500,18.799905517578125,-0.053603384643793106,-0.03558287397027016,-0.016798781231045723
1766385768145867800,18.81686767578125,-0.040775224566459656,-0.03375028073787689,-0.03940077871084213
1766385768162830000,18.833830078125,-0.03222311660647392,-0.02458730712532997,-0.007635809946805239
1766385768179792600,18.850792724609374,-0.022449281066656113,-0.020922118797898293,0.007635809946805239
1766385768196755000,18.8677548828125,-0.01695149764418602,-0.01359174121171236,0.024740023538470268
1766385768213717200,18.88471728515625,-0.018784092739224434,-0.020311253145337105,0.02779434807598591
1766385768230679800,18.9016796875,-0.02672533318400383,-0.017256930470466614,0.041844237595796585
1766385768247642000,18.91864208984375,-0.02306014485657215,-0.012370011769235134,0.022296564653515816
1766385768264604400,18.9356044921875,-0.01511890348047018,-0.016646064817905426,-0.000305432389723137
1766385768281567000,18.95256689453125,-0.011453714221715927,-0.008704823441803455,-0.011911863461136818
1766385768298529300,18.969529296875,-0.003512472379952669,-0.028863361105322838,-0.026572618633508682
1766385768315491600,18.98649169921875,-0.007177661173045635,-0.0025961752980947495,-0.08338304609060287
1766385768332454100,19.0034541015625,0.0007635809597559273,0.031001387163996696,-0.03817904740571976
1766385768349416400,19.02041650390625,-0.01206457894295454,0.041386090219020844,-0.003359756199643016
1766385768366379000,19.03737890625,0.016035201027989388,0.04260781779885292,0.010079269297420979
1766385768383341300,19.05434130859375,0.04230238497257233,0.07864884287118912,0.03451386094093323
1766385768400303600,19.0713037109375,0.08628465235233307,0.016340631991624832,0.02718348242342472
1766385768417266200,19.08826611328125,0.058795735239982605,0.025503603741526604,0.25503605604171753
1766385768434228500,19.105228515625,0.039858926087617874,-0.007483093533664942,-0.0204639695584774
1766385768451190800,19.122190673828126,0.023365577682852745,0.01206457894295454,0.17318016290664673
1766385768468153300,19.1391533203125,0.03375028073787689,-0.010537417605519295,0.011300998739898205
1766385768485115600,19.15611572265625,0.030695954337716103,0.01511890348047018,0.0308486707508564
1766385768502078000,19.173077880859374,0.039248060435056686,0.009621120058000088,-0.01435532234609127
1766385768519040300,19.190040283203125,0.036193739622831345,0.015729768201708794,0.011911863461136818
1766385768536002800,19.2070029296875,0.04046979174017906,0.004734201822429895,0.011300998739898205
1766385768552965000,19.223965087890626,0.03741546720266342,-0.0007635809597559273,0.04001164436340332
1766385768569927400,19.240927490234377,0.033139415085315704,-0.0038179049734026194,0.022296564653515816
1766385768586890000,19.257889892578124,0.023976443335413933,-0.005650499369949102,0.035124726593494415
1766385768603852300,19.274852294921875,0.02153298258781433,-0.0001527161948615685,0.010079269297420979
1766385768620814800,19.29181494140625,0.01908952370285988,0.006566796451807022,0.012522728182375431
1766385768637777200,19.308777099609376,0.009926552884280682,0.005955931730568409,0.005192350596189499
1766385768654739500,19.325739501953127,0.0001527161948615685,0.005345067009329796,0.019242240116000175
1766385768671702000,19.342701904296874,-0.004734201822429895,0.0010690133785828948,0.02718348242342472
1766385768688664300,19.359664306640624,-0.0102319847792387,-0.0013744457392022014,0.04367683082818985
1766385768705626600,19.376626708984375,-0.011453714221715927,-0.0062613640911877155,0.05100720748305321
1766385768722589000,19.3935888671875,-0.012675444595515728,-0.004428769461810589,0.05039634555578232
1766385768739551500,19.410551513671876,-0.013897174037992954,-0.0013744457392022014,0.05039634555578232
1766385768756513800,19.427513671875,-0.018784092739224434,-0.0062613640911877155,0.016187917441129684
1766385768773476000,19.44447607421875,-0.03711003437638283,0.002901607658714056,0.07055488228797913
1766385768790438700,19.461438720703125,-0.043829549103975296,0.007788525894284248,0.02718348242342472
1766385768807401000,19.47840087890625,-0.027336198836565018,-0.005039634648710489,0.04306596517562866
1766385768824363300,19.49536328125,-0.021838415414094925,0.00045814859913662076,0.04001164436340332
1766385768841325600,19.51232568359375,-0.02000582218170166,-0.007483093533664942,0.05528326332569122
1766385768858288000,19.5292880859375,-0.02916879393160343,-0.02458730712532997,0.061391908675432205
1766385768875250400,19.54625048828125,-0.04016435891389847,-0.023976443335413933,0.06933315098285675
1766385768892212700,19.563212646484374,-0.025503603741526604,-0.03375028073787689,0.07788526266813278
1766385768909175300,19.58017529296875,-0.02306014485657215,-0.039858926087617874,0.051618073135614395
1766385768926137600,19.5971376953125,-0.034666575491428375,-0.020311253145337105,0.03329212963581085
1766385768943100000,19.614099853515626,-0.034666575491428375,-0.055741410702466965,0.04550942778587341
1766385768960062200,19.631062255859376,-0.054214250296354294,0.034666575491428375,-0.21716243028640747
1766385768977024800,19.648024658203123,-0.031001387163996696,0.06765327602624893,-0.000305432389723137
1766385768993987000,19.664987060546874,0.011148282326757908,0.007177661173045635,-0.011300998739898205
1766385769010949600,19.68194970703125,0.006872228812426329,0.007788525894284248,0.035735588520765305
1766385769027912000,19.698911865234376,0.011759147047996521,-0.019700389355421066,0.025961752980947495
1766385769044874200,19.715874267578126,0.004428769461810589,0.025503603741526604,-0.07788526266813278
1766385769061836500,19.73283642578125,0.014202605932950974,0.29856017231941223,-0.1701258420944214
1766385769078799000,19.749799072265624,0.0844520553946495,-0.022754713892936707,0.5830704569816589
1766385769095761400,19.766761474609375,0.04413498193025589,-0.08933897316455841,-0.05955931544303894
1766385769112723700,19.7837236328125,-0.05177079141139984,0.05482511222362518,-0.1279761642217636
1766385769129686300,19.800686279296876,-0.03283398225903511,-0.0062613640911877155,-0.1182023361325264
1766385769146648600,19.817648681640627,-0.04016435891389847,0.021838415414094925,-0.25809037685394287
1766385769163611000,19.83461083984375,-0.05604684352874756,0.10613775253295898,-0.2666424810886383
1766385769180573200,19.8515732421875,-0.007788525894284248,0.0792597085237503,-0.29596397280693054
1766385769197535700,19.86853564453125,0.019700389355421066,0.06704241037368774,0.1597411334514618
1766385769214498000,19.885498046875,0.006872228812426329,0.008399390615522861,-0.30146175622940063
1766385769231460400,19.90246044921875,-0.003512472379952669,-0.0032070400193333626,0.210442915558815
1766385769248422700,19.919422607421875,-0.002901607658714056,-0.055741410702466965,-0.18661919236183167
1766385769265385200,19.93638525390625,-0.009621120058000088,0.018173227086663246,-0.013744457624852657
1766385769282347500,19.953347412109373,-0.009621120058000088,0.013286309316754341,-0.16157373785972595
1766385769299309800,19.970309814453124,0.0025961752980947495,0.057268574833869934,-0.23243404924869537
1766385769316272000,19.987272216796875,0.006872228812426329,0.15867212414741516,-0.0204639695584774
1766385769333234700,20.004234619140625,0.04780016839504242,0.0951421856880188,-0.08032871782779694
1766385769350197000,20.021197021484376,0.06246092543005943,-0.014202605932950974,0.07788526266813278
1766385769367159300,20.0381591796875,0.05329795181751251,-0.11377356201410294,0.2574795186519623
1766385769384121600,20.05512158203125,0.005039634648710489,-0.01908952370285988,0.24953825771808624
1766385769401084000,20.072083984375,0.006872228812426329,-0.0539088174700737,-0.03451386094093323
1766385769418046500,20.08904638671875,0.011148282326757908,-0.0001527161948615685,0.13591741025447845
1766385769435008800,20.1060087890625,0.03252854943275452,0.01206457894295454,-0.08949168771505356
1766385769451971000,20.12297119140625,0.0386371985077858,0.044440411031246185,-0.10109812021255493
1766385769468933400,20.139933349609375,0.030085090547800064,0.054214250296354294,-0.06933315098285675
1766385769485896000,20.15689599609375,0.027030766010284424,0.030390523374080658,-0.024740023538470268
1766385769502858200,20.173858154296877,0.027030766010284424,0.005955931730568409,0.018631376326084137
1766385769519820500,20.190820556640624,0.03497200831770897,-0.0154243353754282,0.08093958348035812
1766385769536782800,20.207782958984374,0.04535670951008797,0.00045814859913662076,0.10720676928758621
1766385769553745400,20.224745361328125,0.052076224237680435,0.006566796451807022,0.0412333719432354
1766385769570707700,20.241707763671876,0.06307178735733032,0.027336198836565018,0.057726722210645676
1766385769587670000,20.258669921875,0.06551524996757507,0.02977965772151947,-0.01802051067352295
1766385769604632300,20.27563232421875,0.061850059777498245,0.0383317656815052,0.01435532234609127
1766385769621594600,20.2925947265625,0.06490438431501389,0.044440411031246185,-0.023518294095993042
1766385769638557200,20.30955712890625,0.07712167501449585,0.04260781779885292,0.04062250629067421
1766385769655519500,20.32651953125,0.08811724185943604,0.044440411031246185,0.035124726593494415
1766385769672481800,20.343481689453125,0.10949750989675522,0.06765327602624893,0.05100720748305321
1766385769689444000,20.360444091796875,0.13393209874629974,0.06154462695121765,0.015577051788568497
1766385769706406700,20.37740673828125,0.14248420298099518,0.06643154472112656,0.000305432389723137
1766385769723369000,20.394368896484377,0.12843431532382965,0.07009673118591309,-0.008246674202382565
1766385769740331300,20.411331298828124,0.12293653935194016,0.04321868345141411,-0.02779434807598591
1766385769757293600,20.42829345703125,0.11133010685443878,0.04566214233636856,0.0021380267571657896
1766385769774255900,20.445255859375,0.10461059212684631,0.03405570983886719,0.0021380267571657896
1766385769791218400,20.462218505859376,0.10094540566205978,0.031001387163996696,0.03023780696094036
1766385769808180700,20.4791806640625,0.09605848789215088,0.027336198836565018,0.018631376326084137
1766385769825143000,20.49614306640625,0.08261945843696594,0.02611446939408779,0.016187917441129684
1766385769842105300,20.513105224609376,0.06551524996757507,0.024281874299049377,0.01740964688360691
1766385769859067600,20.530067626953127,0.06062832847237587,0.017562363296747208,0.007024944759905338
1766385769876030200,20.5470302734375,0.055741410702466965,0.017562363296747208,0.013133592903614044
1766385769892992500,20.563992431640624,0.05329795181751251,0.015729768201708794,-0.003970621153712273
1766385769909954800,20.580954833984375,0.052687086164951324,0.02367101050913334,0.007024944759905338
1766385769926917000,20.597917236328126,0.05696314200758934,0.01511890348047018,-0.016187917441129684
1766385769943879400,20.61487939453125,0.05635227635502815,0.02672533318400383,0.013133592903614044
