time,seconds_elapsed,z,y,x
1766385749427863800,0.09886376953125,-0.001221729558892548,0.0054977829568088055,0.007941242307424545
1766385749444826000,0.115826171875,0.007330377586185932,0.010384701192378998,-0.0030543238390237093
1766385749461788400,0.132788330078125,0.020158538594841957,0.0030543238390237093,0.034208428114652634
1766385749478750500,0.14975048828125,0.02260199747979641,-0.018325943499803543,0.0922405794262886
1766385749495712800,0.166712646484375,0.014660755172371864,-0.01893680728971958,0.12034036219120026
1766385749512675000,0.183675048828125,0.003665188793092966,-0.010995565913617611,0.10140355676412582
1766385749529637000,0.20063720703125,-0.002443459117785096,0.008552107028663158,0.056810423731803894
1766385749546599400,0.217599365234375,0.007941242307424545,0.0054977829568088055,0.039706211537122726
1766385749563561700,0.234561767578125,0.018325943499803543,-0.010384701192378998,0.031154103577136993
1766385749580524000,0.25152392578125,0.01588248461484909,-0.0030543238390237093,-0.007330377586185932
1766385749597486000,0.268486083984375,0.014049889519810677,0.034208428114652634,-0.01649334840476513
1766385749614448400,0.285448486328125,0.006719512399286032,0.02260199747979641,0.011606430634856224
1766385749631410700,0.30241064453125,0.004886918235570192,-0.010995565913617611,0.04214967042207718
1766385749648372700,0.319372802734375,-0.001221729558892548,-0.009162971749901772,0.039706211537122726
1766385749665335000,0.3363349609375,0.004276053514331579,0.010995565913617611,0.006108647678047419
1766385749682297300,0.35329736328125,0.004886918235570192,0.007941242307424545,0.006719512399286032
1766385749699259400,0.37025927734375,0.0030543238390237093,0.007941242307424545,0.028099779039621353
1766385749716221700,0.3872216796875,0.0030543238390237093,0.015271619893610477,0.02932151034474373
1766385749733184000,0.40418408203125,0.007941242307424545,0.020769402384757996,0.01588248461484909
1766385749750146000,0.42114599609375,0.013439024798572063,0.008552107028663158,0.010384701192378998
1766385749767108400,0.4381083984375,0.009162971749901772,0,0.018325943499803543
1766385749784070700,0.455070556640625,0.001221729558892548,0.01588248461484909,0.0256563201546669
1766385749801032700,0.47203271484375,0.000610864779446274,0.015271619893610477,0.043371398001909256
1766385749817995000,0.4889951171875,0.01588248461484909,0.001832594396546483,0.04825831577181816
1766385749834957300,0.505957275390625,0.017715077847242355,0.0054977829568088055,0.01954767294228077
1766385749851919400,0.52291943359375,0.01282816007733345,0.03298669680953026,-0.003665188793092966
1766385749868881700,0.539881591796875,0.007941242307424545,0.04520399495959282,0.010995565913617611
1766385749885844000,0.556843994140625,0.004886918235570192,0.053756099194288254,0.008552107028663158
1766385749902806300,0.57380615234375,-0.001221729558892548,0.06719512492418289,-0.017715077847242355
1766385749919768300,0.590768310546875,-0.006719512399286032,0.05436696484684944,-0.03237583488225937
1766385749936730600,0.607730712890625,0.001221729558892548,0.0256563201546669,-0.0054977829568088055
1766385749953692700,0.624692626953125,0.01893680728971958,-0.006719512399286032,0.053756099194288254
1766385749970655000,0.641655029296875,0.02260199747979641,-0.006108647678047419,0.0769689604640007
1766385749987617300,0.6586171875,0.02260199747979641,0.0030543238390237093,0.06230820715427399
1766385750004579300,0.675579345703125,0.020158538594841957,-0.004276053514331579,0.050090912729501724
1766385750021541600,0.692541748046875,0.01588248461484909,0.007330377586185932,0.015271619893610477
1766385750038504000,0.70950390625,0.0054977829568088055,0.012217295356094837,-0.026878049597144127
1766385750055466000,0.726466064453125,0.004886918235570192,0.006719512399286032,-0.04886918142437935
1766385750072428300,0.74342822265625,0.01282816007733345,0.01588248461484909,-0.025045456364750862
1766385750089390600,0.760390625,0.014049889519810677,0.006719512399286032,0.020158538594841957
1766385750106352600,0.7773525390625,0.014660755172371864,0.0054977829568088055,0.053145237267017365
1766385750123315000,0.79431494140625,0.014660755172371864,0.011606430634856224,0.056199558079242706
1766385750140277200,0.81127734375,0.015271619893610477,-0.011606430634856224,0.014049889519810677
1766385750157239300,0.8282392578125,0.0030543238390237093,-0.001832594396546483,-0.021991131827235222
1766385750174201600,0.84520166015625,-0.006719512399286032,0.006108647678047419,-0.03176496922969818
1766385750191164000,0.862163818359375,0.008552107028663158,0.010384701192378998,-0.003665188793092966
1766385750208126000,0.8791259765625,0.017715077847242355,-0.006108647678047419,0.025045456364750862
1766385750225088300,0.896088134765625,0.017104214057326317,-0.006108647678047419,0.029932374134659767
1766385750242050600,0.913050537109375,0.01282816007733345,0.007330377586185932,0.008552107028663158
1766385750259012600,0.9300126953125,0.004276053514331579,0.017104214057326317,-0.020158538594841957
1766385750275975000,0.946974853515625,-0.011606430634856224,0.011606430634856224,-0.03237583488225937
1766385750292937200,0.963937255859375,0.001832594396546483,0.000610864779446274,-0.001221729558892548
1766385750309899300,0.980899169921875,0.01282816007733345,-0.001221729558892548,0.04520399495959282
1766385750326861600,0.997861572265625,0.010995565913617611,-0.003665188793092966,0.04886918142437935
1766385750343824000,1.014823974609375,0.009773836471140385,0.004886918235570192,0.004276053514331579
1766385750360786000,1.031785888671875,0.010384701192378998,0.012217295356094837,-0.02626718580722809
1766385750377748200,1.048748291015625,0.006719512399286032,0,-0.026878049597144127
1766385750394710500,1.06571044921875,0.0030543238390237093,-0.006719512399286032,-0.017715077847242355
1766385750411672800,1.0826728515625,-0.000610864779446274,-0.000610864779446274,-0.004886918235570192
1766385750428635000,1.099634765625,0.006108647678047419,0.001832594396546483,0.018325943499803543
1766385750445597200,1.11659716796875,0.010384701192378998,-0.010384701192378998,0.03787361457943916
1766385750462559500,1.1335595703125,0.008552107028663158,-0.001832594396546483,0.018325943499803543
1766385750479521500,1.150521484375,0.007330377586185932,0.015271619893610477,-0.007330377586185932
1766385750496483800,1.16748388671875,0.001221729558892548,0.009162971749901772,-0.013439024798572063
1766385750513446100,1.184446044921875,-0.000610864779446274,-0.003665188793092966,-0.013439024798572063
1766385750530408200,1.201408203125,0.009162971749901772,-0.009162971749901772,-0.001832594396546483
1766385750547370500,1.21837060546875,0.01282816007733345,-0.01282816007733345,0.0256563201546669
1766385750564332800,1.235332763671875,0.012217295356094837,-0.000610864779446274,0.049480047076940536
1766385750581294800,1.252294921875,0.003665188793092966,0.008552107028663158,0.05497783049941063
1766385750598257200,1.269257080078125,0.0054977829568088055,-0.001221729558892548,0.043982263654470444
1766385750615219500,1.286219482421875,0.004886918235570192,-0.017104214057326317,0.01282816007733345
1766385750632181800,1.303181640625,0.001221729558892548,-0.003665188793092966,-0.0030543238390237093
1766385750649143800,1.320143798828125,0.0054977829568088055,0,0.021380268037319183
1766385750666106000,1.337106201171875,0.006719512399286032,-0.002443459117785096,0.0360410213470459
1766385750683068400,1.354068359375,0.001832594396546483,-0.001832594396546483,0.01282816007733345
1766385750700030700,1.37103076171875,0.004276053514331579,0.013439024798572063,-0.014660755172371864
1766385750716992800,1.38799267578125,0.006108647678047419,0.001832594396546483,-0.007941242307424545
1766385750733955000,1.404955078125,0.004276053514331579,-0.004886918235570192,0.01893680728971958
1766385750750917400,1.42191748046875,0.008552107028663158,-0.010384701192378998,0.03787361457943916
1766385750767879700,1.438879638671875,0.011606430634856224,-0.0030543238390237093,0.034208428114652634
1766385750784841700,1.455841796875,0,0.004886918235570192,0.010995565913617611
1766385750801804000,1.472803955078125,-0.004886918235570192,0.0030543238390237093,-0.017715077847242355
1766385750818766300,1.489766357421875,0.0030543238390237093,-0.004276053514331579,-0.017104214057326317
1766385750835728600,1.506728759765625,0.0054977829568088055,-0.01282816007733345,0.01588248461484909
1766385750852691000,1.52369091796875,0.0054977829568088055,-0.002443459117785096,0.031154103577136993
1766385750869653000,1.540653076171875,0.006108647678047419,0.002443459117785096,0.009773836471140385
1766385750886615300,1.557615234375,0.009162971749901772,-0.003665188793092966,-0.000610864779446274
1766385750903577600,1.57457763671875,0.004276053514331579,-0.009773836471140385,0.0054977829568088055
1766385750920540000,1.591539794921875,0.004276053514331579,0.009162971749901772,-0.006108647678047419
1766385750937502200,1.608502197265625,0.003665188793092966,0.007941242307424545,-0.004276053514331579
1766385750954464300,1.62546435546875,0.003665188793092966,0.006108647678047419,0.015271619893610477
1766385750971426600,1.642426513671875,0.0054977829568088055,-0.012217295356094837,0.01893680728971958
1766385750988388900,1.659388916015625,0.010995565913617611,-0.015271619893610477,0.01954767294228077
1766385751005351200,1.67635107421875,0.007941242307424545,-0.010995565913617611,0.023823726922273636
1766385751022313500,1.6933134765625,0.010384701192378998,-0.003665188793092966,0.04520399495959282
1766385751039275500,1.710275634765625,0.009773836471140385,0.004886918235570192,0.09834922850131989
1766385751056237800,1.72723779296875,0.012217295356094837,0.03237583488225937,0.1594357043504715
1766385751073200000,1.7442001953125,0.03298669680953026,0.023823726922273636,0.1795942485332489
1766385751090162400,1.761162353515625,0.046425722539424896,0.029932374134659767,0.17898337543010712
1766385751107124700,1.778124755859375,0.024434590712189674,0.04764745384454727,0.22663083672523499
1766385751124087000,1.795087158203125,0.031154103577136993,0.13988803327083588,0.3426951467990875
1766385751141049300,1.81204931640625,0.059864748269319534,0.17104214429855347,0.46425724029541016
1766385751158011400,1.829011474609375,0.07330377399921417,0.049480047076940536,0.45937031507492065
1766385751174973700,1.8459736328125,0.033597562462091446,0.07391463965177536,0.39278605580329895
1766385751191936000,1.86293603515625,0.01282816007733345,0.14660754799842834,0.30970844626426697
1766385751208898300,1.879898193359375,0.0513126403093338,0.0513126403093338,0.2632827162742615
1766385751225860600,1.896860595703125,0.05497783049941063,-0.01954767294228077,0.2211330533027649
1766385751242823000,1.913822998046875,0.026878049597144127,-0.056810423731803894,0.15088360011577606
1766385751259785200,1.93078515625,0.04825831577181816,-0.056810423731803894,0.07513637095689774
1766385751276747500,1.94774755859375,0.03909534588456154,-0.053756099194288254,0.04886918142437935
1766385751293709600,1.96470947265625,0.03909534588456154,-0.04764745384454727,0.050090912729501724
1766385751310672000,1.981671875,0.034208428114652634,0.0818558782339096,0.09896009415388107
1766385751327634200,1.99863427734375,0.033597562462091446,-0.05925388261675835,0.05558869615197182
1766385751344596500,2.015596435546875,0.01893680728971958,0.020769402384757996,-0.0769689604640007
1766385751361558800,2.032558837890625,-0.013439024798572063,0.040317077189683914,-0.18631376326084137
1766385751378521000,2.04952099609375,-0.025045456364750862,0.021380268037319183,-0.14477495849132538
1766385751395483400,2.0664833984375,-0.02932151034474373,-0.06841685622930527,0.012217295356094837
1766385751412445700,2.08344580078125,-0.017715077847242355,0.05803215503692627,0.11484257876873016
1766385751429408000,2.100407958984375,-0.0054977829568088055,-0.015271619893610477,0.03543015569448471
1766385751446370000,2.1173701171875,-0.006719512399286032,-0.006108647678047419,-0.1233946830034256
1766385751463332400,2.134332275390625,0.001832594396546483,-0.01893680728971958,-0.23762640357017517
1766385751480294700,2.151294677734375,0.001221729558892548,0.03176496922969818,-0.185092031955719
1766385751497257000,2.168257080078125,-0.017104214057326317,0.006108647678047419,-0.01588248461484909
1766385751514219300,2.18521923828125,0.001832594396546483,-0.021991131827235222,0.1026252806186676
1766385751531181600,2.202181640625,0.0054977829568088055,-0.020158538594841957,0.08979712426662445
1766385751548143900,2.219143798828125,0.004276053514331579,-0.004276053514331579,-0.03481929376721382
1766385751565106200,2.236106201171875,0,0.01282816007733345,-0.16065743565559387
1766385751582068500,2.253068359375,-0.006719512399286032,0.04214967042207718,-0.19730933010578156
1766385751599030800,2.27003076171875,-0.0030543238390237093,0.02626718580722809,-0.13500112295150757
1766385751615993000,2.2869931640625,0.0030543238390237093,-0.006719512399286032,-0.020769402384757996
1766385751632955400,2.303955322265625,-0.001832594396546483,-0.020769402384757996,0.06352993845939636
1766385751649917700,2.320917724609375,-0.007330377586185932,-0.02626718580722809,0.08674279600381851
1766385751666880000,2.3378798828125,-0.006108647678047419,-0.020158538594841957,0.0720820426940918
1766385751683842300,2.35484228515625,0.006719512399286032,-0.021991131827235222,0.046425722539424896
1766385751700804600,2.3718046875,-0.003665188793092966,-0.01282816007733345,0.02626718580722809
1766385751717767000,2.388766845703125,-0.013439024798572063,0.034208428114652634,0.02871064469218254
1766385751734729200,2.405729248046875,-0.03176496922969818,0.06108647957444191,0.02932151034474373
1766385751751691500,2.42269140625,-0.027488915249705315,0.053145237267017365,0.05497783049941063
1766385751768653800,2.43965380859375,-0.02871064469218254,0.028099779039621353,0.10690133273601532
1766385751785616000,2.456615966796875,-0.007330377586185932,0.012217295356094837,0.1545487940311432
1766385751802578200,2.473578125,-0.01588248461484909,0.006719512399286032,0.20891575515270233
1766385751819540500,2.49054052734375,-0.06230820715427399,-0.031154103577136993,0.2101374864578247
1766385751836502800,2.507502685546875,-0.05925388261675835,-0.018325943499803543,0.1539379209280014
1766385751853465000,2.524465087890625,-0.0360410213470459,0.02626718580722809,0.12767073512077332
1766385751870427400,2.541427490234375,-0.021380268037319183,0.014660755172371864,0.19181154668331146
1766385751887389700,2.5583896484375,-0.026878049597144127,0.009162971749901772,0.2767217457294464
1766385751904352000,2.57535205078125,-0.026878049597144127,-0.06230820715427399,0.3536907136440277
1766385751921314300,2.592314208984375,-0.04886918142437935,-0.2009745091199875,0.401949018239975
1766385751938276600,2.609276611328125,-0.10751219838857651,-0.21441353857517242,0.4043924808502197
1766385751955239000,2.626239013671875,-0.10751219838857651,-0.21441353857517242,0.3017672002315521
1766385751972201200,2.643201171875,-0.07147117704153061,-0.15760311484336853,0.17104214429855347
1766385751989163500,2.66016357421875,-0.027488915249705315,-0.17043127119541168,0.02932151034474373
1766385752006125800,2.677125732421875,-0.004276053514331579,-0.1795942485332489,-0.10201441496610641
1766385752023088000,2.694088134765625,-0.040317077189683914,-0.0922405794262886,-0.16554436087608337
1766385752040050400,2.711050537109375,-0.036651886999607086,0.07574722915887833,-0.07452550530433655
1766385752057012700,2.7280126953125,-0.011606430634856224,0.08674279600381851,0.09896009415388107
1766385752073975000,2.74497509765625,0.0360410213470459,-0.04459312930703163,0.14233149588108063
1766385752090937300,2.761937255859375,0.04153880476951599,-0.031154103577136993,0.05070177838206291
1766385752107899600,2.778899658203125,0.03237583488225937,-0.0256563201546669,-0.0616973415017128
1766385752124862000,2.795862060546875,0.03298669680953026,-0.12522727251052856,-0.09834922850131989
1766385752141824300,2.81282421875,-0.012217295356094837,-0.06597339361906052,-0.06719512492418289
1766385752158786600,2.82978662109375,-0.023823726922273636,0.030543239787220955,-0.05925388261675835
1766385752175748900,2.846748779296875,-0.03481929376721382,0.053145237267017365,-0.10018182545900345
1766385752192711200,2.863711181640625,-0.034208428114652634,0.06780599057674408,-0.09162971377372742
1766385752209673500,2.880673583984375,-0.014660755172371864,0.050090912729501724,-0.08491020649671555
1766385752226635800,2.8976357421875,0.006719512399286032,0.06291907280683517,-0.1178968995809555
1766385752243598000,2.91459814453125,0.01893680728971958,0.0818558782339096,-0.21746785938739777
1766385752260560400,2.931560302734375,0.0054977829568088055,0.1185077652335167,-0.28038692474365234
1766385752277522700,2.948522705078125,-0.009773836471140385,0.13133592903614044,-0.27916520833969116
1766385752294484700,2.965484619140625,-0.018325943499803543,0.08613193035125732,-0.21502439677715302
1766385752311447300,2.982447265625,-0.03787361457943916,0.07147117704153061,-0.1233946830034256
1766385752328409600,2.99940966796875,-0.04520399495959282,0.1484401375055313,-0.07880155742168427
1766385752345371600,3.01637158203125,-0.024434590712189674,0.11667517572641373,-0.05192350596189499
1766385752362334000,3.033333984375,0.002443459117785096,0.04764745384454727,-0.02871064469218254
1766385752379296300,3.050296142578125,0.004886918235570192,0.04153880476951599,-0.001832594396546483
1766385752396258800,3.0672587890625,-0.008552107028663158,0.053145237267017365,-0.028099779039621353
1766385752413220900,3.084220947265625,-0.06230820715427399,-0.01893680728971958,-0.06475166976451874
1766385752430183200,3.10118310546875,-0.01649334840476513,-0.09834922850131989,-0.07330377399921417
1766385752447145500,3.1181455078125,0.018325943499803543,-0.10751219838857651,0.0409279391169548
1766385752464107800,3.135107666015625,0.04581485688686371,-0.1081230640411377,0.14172062277793884
1766385752481070000,3.152070068359375,0.04581485688686371,-0.06597339361906052,0.1380554437637329
1766385752498032400,3.169032470703125,0.020158538594841957,-0.001832594396546483,0.026878049597144127
1766385752514994700,3.18599462890625,-0.01893680728971958,0.10873392969369888,-0.06414080411195755
1766385752531957000,3.20295703125,-0.049480047076940536,0.22846342623233795,-0.06414080411195755
1766385752548919300,3.219919189453125,-0.000610864779446274,0.18570289015769958,-0.05436696484684944
1766385752565881600,3.236881591796875,0.017715077847242355,0.10018182545900345,-0.028099779039621353
1766385752582844000,3.253843994140625,0.0256563201546669,0.10934479534626007,-0.06352993845939636
1766385752599806200,3.27080615234375,0.047036588191986084,0.09101885557174683,-0.11545344442129135
1766385752616768500,3.2877685546875,0.04764745384454727,0.04520399495959282,-0.10323614627122879
1766385752633730800,3.304730712890625,0.02871064469218254,0.004886918235570192,-0.04581485688686371
1766385752650693000,3.321693115234375,0.000610864779446274,0.010995565913617611,-0.034208428114652634
1766385752667655400,3.338655517578125,-0.021991131827235222,0.056199558079242706,-0.1337793916463852
1766385752684617700,3.35561767578125,-0.03298669680953026,0.11117739230394363,-0.2205221801996231
1766385752701580000,3.372580078125,0.004276053514331579,0.10751219838857651,-0.1893680840730667
1766385752718542300,3.389542236328125,0.004276053514331579,0.08979712426662445,-0.0665842592716217
1766385752735504600,3.406504638671875,0.002443459117785096,0.05253437161445618,0.017104214057326317
1766385752752467000,3.423467041015625,-0.000610864779446274,0.0256563201546669,0.006719512399286032
1766385752769429200,3.44042919921875,0.021380268037319183,0.01649334840476513,-0.06719512492418289
1766385752786391600,3.4573916015625,0.01649334840476513,0.010384701192378998,-0.11911863088607788
1766385752803353900,3.474353759765625,0.008552107028663158,-0.06047561392188072,-0.06475166976451874
1766385752820316200,3.491316162109375,-0.007330377586185932,-0.07330377399921417,0.008552107028663158
1766385752837278500,3.508278564453125,-0.01282816007733345,-0.0360410213470459,0.007941242307424545
1766385752854240800,3.52524072265625,0.006108647678047419,-0.01588248461484909,-0.03848448023200035
1766385752871203000,3.542203125,0.006719512399286032,-0.003665188793092966,-0.06230820715427399
1766385752888165400,3.559165283203125,0.010384701192378998,0.01893680728971958,-0.047036588191986084
1766385752905127700,3.576127685546875,0.01649334840476513,0.009162971749901772,-0.002443459117785096
1766385752922090000,3.593090087890625,0.027488915249705315,-0.0513126403093338,0.06352993845939636
1766385752939052300,3.61005224609375,0.014660755172371864,-0.06475166976451874,0.053145237267017365
1766385752956014600,3.6270146484375,0.014049889519810677,-0.0409279391169548,-0.03848448023200035
1766385752972977000,3.643976806640625,0,0.007941242307424545,-0.07635809481143951
1766385752989939200,3.660939208984375,-0.004276053514331579,0.01954767294228077,-0.020158538594841957
1766385753006901500,3.677901611328125,-0.007941242307424545,0.011606430634856224,0.037262752652168274
1766385753023863800,3.69486376953125,-0.006719512399286032,-0.02932151034474373,0.05070177838206291
1766385753040826000,3.711826171875,-0.008552107028663158,-0.026878049597144127,0.0030543238390237093
1766385753057788400,3.728788330078125,-0.012217295356094837,0.036651886999607086,-0.1178968995809555
1766385753074750700,3.745750732421875,-0.013439024798572063,0.046425722539424896,-0.16065743565559387
1766385753091713000,3.762713134765625,-0.01649334840476513,-0.01893680728971958,-0.01282816007733345
1766385753108675300,3.77967529296875,-0.01954767294228077,-0.043371398001909256,0.10018182545900345
1766385753125637600,3.7966376953125,-0.02932151034474373,-0.010384701192378998,0.04764745384454727
1766385753142600000,3.813599853515625,-0.028099779039621353,0.03909534588456154,-0.10201441496610641
1766385753159562200,3.830562255859375,0.006719512399286032,0.10201441496610641,-0.16004657745361328
1766385753176524500,3.847524658203125,0.026878049597144127,0.034208428114652634,-0.023823726922273636
1766385753193486800,3.86448681640625,0.020158538594841957,-0.010995565913617611,0.11911863088607788
1766385753210449200,3.88144921875,0.01588248461484909,-0.026878049597144127,0.1386663019657135
1766385753227411500,3.898411376953125,0.017104214057326317,-0.03909534588456154,0.08674279600381851
1766385753244373800,3.915373779296875,0.03543015569448471,-0.04520399495959282,0.017104214057326317
1766385753261336000,3.932336181640625,0.02932151034474373,0.0769689604640007,-0.009773836471140385
1766385753278298400,3.94929833984375,0.050090912729501724,0.13744457066059113,0.0054977829568088055
1766385753295260700,3.9662607421875,0.04886918142437935,0.09957095980644226,0.04520399495959282
1766385753312223000,3.983222900390625,0.029932374134659767,0.05864302068948746,0.03298669680953026
1766385753329185300,4.000185302734375,0.01282816007733345,0.024434590712189674,-0.049480047076940536
1766385753346147600,4.017147705078125,-0.004276053514331579,-0.02932151034474373,-0.12950333952903748
1766385753363110000,4.03410986328125,-0.010995565913617611,-0.04214967042207718,-0.11972949653863907
1766385753380072200,4.051072265625,-0.009773836471140385,-0.09651663154363632,-0.047036588191986084
1766385753397034500,4.068034423828125,0.001832594396546483,-0.07635809481143951,0.0616973415017128
1766385753413996800,4.084996826171875,-0.03787361457943916,-0.03237583488225937,0.22296564280986786
1766385753430959000,4.101958984375,-0.1386663019657135,-0.18142683804035187,0.3897317349910736
1766385753447921400,4.11892138671875,-0.05436696484684944,-0.44837474822998047,0.5070177912712097
1766385753464883700,4.1358837890625,-0.08918625861406326,-0.4520399272441864,0.3689623177051544
1766385753481846000,4.152845947265625,-0.03848448023200035,-0.18875721096992493,0.05864302068948746
1766385753498808300,4.169808349609375,0.09651663154363632,0.0665842592716217,-0.28038692474365234
1766385753515770600,4.1867705078125,0.1545487940311432,0.370184063911438,-0.5809323787689209
1766385753532733000,4.20373291015625,0.17653992772102356,0.2419024556875229,-0.5082395076751709
1766385753549695200,4.2206953125,0.164322629570961,0.11117739230394363,-0.3035998046398163
1766385753566657500,4.237657470703125,0.09407317638397217,-0.13622283935546875,-0.047036588191986084
1766385753583619800,4.254619873046875,0.08918625861406326,-0.1997527778148651,0.056199558079242706
1766385753600582100,4.27158203125,-0.017104214057326317,0.0360410213470459,0.033597562462091446
1766385753617544400,4.28854443359375,0.08918625861406326,0.695164144039154,0.027488915249705315
1766385753634506800,4.3055068359375,0.16187916696071625,0.9474512934684753,0.2370155304670334
1766385753651469000,4.322468994140625,0.14782927930355072,0.7171552777290344,0.4068359434604645
1766385753668431400,4.339431396484375,0.11362084746360779,0.2620609998703003,0.3836230933666229
1766385753685393700,4.3563935546875,0.020769402384757996,0.010384701192378998,0.23212862014770508
1766385753702356000,4.37335595703125,-0.10323614627122879,-0.09712749719619751,0.07574722915887833
1766385753719318300,4.390318359375,-0.16126830875873566,0.028099779039621353,-0.040317077189683914
1766385753736280600,4.407280517578125,-0.16737695038318634,0.4050033390522003,-0.19730933010578156
1766385753753243000,4.424242919921875,-0.10140355676412582,0.5015199780464172,-0.25045454502105713
1766385753770205200,4.441205078125,-0.07941242307424545,0.48013970255851746,-0.2052505612373352
1766385753787167500,4.45816748046875,-0.08979712426662445,0.47097674012184143,-0.007941242307424545
1766385753804129800,4.4751298828125,-0.05497783049941063,0.44470956921577454,0.4367683231830597
1766385753821092000,4.492092041015625,0.16065743565559387,0.1740964651107788,0.7275399565696716
1766385753838054400,4.509054443359375,0.4324922561645508,-0.10506874322891235,0.46486809849739075
1766385753855016700,4.5260166015625,0.7379246354103088,-0.5216785073280334,0.3738492429256439
1766385753871979000,4.54297900390625,0.9181297421455383,-0.7067705392837524,0.5027416944503784
1766385753888941300,4.55994140625,0.6126973628997803,-0.5057960152626038,0.2926042377948761
1766385753905903600,4.576903564453125,0.4013381600379944,-0.17776164412498474,-0.13622283935546875
1766385753922866000,4.593865966796875,0.4630354940891266,0.32681265473365784,-0.40317076444625854
1766385753939828200,4.610828125,-0.38789913058280945,0.8210022449493408,-0.3970620930194855
1766385753956790500,4.62779052734375,-0.5937605500221252,0.18387030065059662,-0.2663370370864868
1766385753973752800,4.6447529296875,-0.0409279391169548,0.21868959069252014,-0.8826996088027954
1766385753990715100,4.661715087890625,0.5412262082099915,0.04581485688686371,-1.4825688600540161
1766385754007677400,4.678677490234375,0.536339282989502,-0.0922405794262886,-1.3658936023712158
1766385754024639700,4.6956396484375,0.09346231073141098,0.07147117704153061,-0.8057306408882141
1766385754041602000,4.71260205078125,-0.5100721120834351,0.40927940607070923,-0.021991131827235222
1766385754058564400,4.729564453125,-1.1154390573501587,0.5155698657035828,0.6462949514389038
1766385754075526700,4.746526611328125,-1.590080976486206,0.2559523284435272,0.6487383842468262
1766385754092489000,4.763489013671875,-1.814879298210144,-0.059864748269319534,0.143553227186203
1766385754109451300,4.780451171875,-1.6035200357437134,0.1081230640411377,-0.037262752652168274
1766385754126413600,4.79741357421875,-1.1307107210159302,0.5229002237319946,0.33169957995414734
1766385754143376000,4.8143759765625,-0.823445737361908,0.9553925395011902,0.6004800796508789
1766385754160338200,4.831338134765625,-0.7476984858512878,0.8466585874557495,0.4618137776851654
1766385754177300500,4.848300537109375,-0.7312051653862,0.34697118401527405,0.3384190797805786
1766385754194262800,4.8652626953125,-0.4874700903892517,0.2364046722650528,0.3280344009399414
1766385754211225000,4.88222509765625,-0.22357651591300964,0.42088583111763,0.1747073233127594
1766385754228187400,4.8991875,-0.12156209349632263,0.9553925395011902,-0.01649334840476513
1766385754245149700,4.916149658203125,-0.42394015192985535,1.488066554069519,0.25411975383758545
1766385754262112000,4.933112060546875,-0.657290518283844,2.196669816970825,0.9517273306846619
1766385754279074300,4.95007421875,-0.46608981490135193,2.6090035438537598,1.166751742362976
1766385754296036600,4.96703662109375,0.05558869615197182,1.9181153774261475,1.1911863088607788
1766385754312999000,4.9839990234375,0.5259546041488647,1.416595458984375,0.9700532555580139
1766385754329961200,5.000961181640625,0.4764745235443115,1.609628677368164,0.37751442193984985
1766385754346923500,5.017923583984375,-0.023212861269712448,1.36772620677948,-0.37690356373786926
1766385754363885800,5.0348857421875,-0.31642794609069824,-0.2364046722650528,-1.7831143140792847
1766385754380848000,5.05184814453125,-0.749531090259552,-1.4819579124450684,-1.4563016891479492
1766385754397810400,5.068810546875,-1.158199667930603,-1.0586286783218384,-1.0231984853744507
1766385754414772700,5.085772705078125,-0.6682860851287842,0.20463970303535461,-0.41783151030540466
1766385754431735000,5.102735107421875,-0.22663083672523499,1.6591087579727173,-0.23518294095993042
1766385754448697300,5.119697265625,-0.053756099194288254,2.003636360168457,-0.08613193035125732
1766385754465659600,5.13665966796875,0.04886918142437935,1.719584345817566,-0.37812530994415283
1766385754482622000,5.1536220703125,-0.3530798554420471,0.6688969135284424,-1.1435388326644897
1766385754499584300,5.170584228515625,-0.8210022449493408,-0.328645259141922,-1.1209368705749512
1766385754516546600,5.187546630859375,-0.4923570156097412,-0.7422007322311401,-0.2809978127479553
1766385754533508900,5.2045087890625,0.2052505612373352,-0.8503237962722778,0.56382817029953
1766385754550471200,5.22147119140625,0.6096430420875549,-0.4514290690422058,0.842382550239563
1766385754567433500,5.23843359375,0.47586366534233093,-0.84177166223526,0.8124501705169678
1766385754584395800,5.255395751953125,0.29016077518463135,-1.0091485977172852,0.676227331161499
1766385754601358000,5.272358154296875,0.001832594396546483,-0.6707295179367065,0.5583304166793823
1766385754618320400,5.2893203125,-0.46975502371788025,-0.9053016304969788,0.5045742988586426
1766385754635282700,5.30628271484375,-0.9181297421455383,-1.3267983198165894,0.5571087002754211
1766385754652245000,5.323244873046875,-0.42821621894836426,-2.2369868755340576,2.13191819190979
1766385754669207300,5.340207275390625,-0.462424635887146,-0.6078104376792908,1.618180751800537
1766385754686169600,5.357169677734375,0.03176496922969818,-1.7983858585357666,0.29077163338661194
1766385754703132000,5.3741318359375,-0.14294235408306122,-1.792277216911316,-0.08918625861406326
1766385754720094200,5.39109423828125,-0.19303326308727264,-1.3640609979629517,-0.22663083672523499
1766385754737056500,5.408056396484375,-0.46486809849739075,-1.0867284536361694,-0.5198459029197693
1766385754754018800,5.425018798828125,-0.695164144039154,-0.8381064534187317,-0.4978547990322113
1766385754770981000,5.441981201171875,-0.7605266571044922,-0.6304124593734741,-0.23396120965480804
1766385754787943400,5.458943359375,-0.8710931539535522,-0.31520622968673706,0.0665842592716217
1766385754804905700,5.47590576171875,-0.6921098232269287,-0.24740023910999298,0.33658650517463684
1766385754821868000,5.492867919921875,-0.1844811588525772,-0.45448338985443115,0.3237583339214325
1766385754838830300,5.509830322265625,0.4825831651687622,-0.8662062287330627,0.34208428859710693
1766385754855792600,5.526792724609375,1.0274745225906372,-1.211344838142395,0.6126973628997803
1766385754872755000,5.5437548828125,1.3096940517425537,-1.3597849607467651,1.1239912509918213
1766385754889717200,5.56071728515625,1.7812817096710205,-1.2089014053344727,1.303585410118103
1766385754906679600,5.577679443359375,2.0219624042510986,-1.0396918058395386,0.5387827157974243
1766385754923641900,5.594641845703125,1.6951497793197632,-1.05496346950531,-0.4379900395870209
1766385754940604200,5.611604248046875,1.1325433254241943,-0.9676098227500916,-0.8924734592437744
1766385754957566500,5.62856640625,0.740368127822876,-0.5522217750549316,-0.5748237371444702
1766385754974528800,5.64552880859375,0.5748237371444702,-0.5137372612953186,-0.235793799161911
1766385754991491000,5.662490966796875,0.6444623470306396,-0.2834412455558777,-0.721431314945221
1766385755008453400,5.679453369140625,0.4318813979625702,-0.4575377106666565,-1.2058470249176025
1766385755025415700,5.696415771484375,0.19425499439239502,-0.5870410799980164,-1.2089014053344727
1766385755042378000,5.7133779296875,0.47036588191986084,-0.258395791053772,-0.7055488228797913
1766385755059340300,5.73034033203125,0.638353705406189,-0.5626064538955688,-0.5332849621772766
1766385755076302600,5.747302490234375,0.5131264328956604,-0.1337793916463852,-0.8973603844642639
1766385755093265000,5.764264892578125,0.020158538594841957,0.008552107028663158,-1.072678565979004
1766385755110227200,5.781227294921875,-0.39217519760131836,0.09651663154363632,-1.1887428760528564
1766385755127189500,5.798189453125,-0.6896663308143616,0.2632827162742615,-0.7116574645042419
1766385755144151800,5.81515185546875,-0.6921098232269287,0.3488037884235382,-0.4410443603992462
1766385755161114000,5.832114013671875,-0.5894845128059387,0.012217295356094837,-0.6505709886550903
1766385755178076400,5.849076416015625,-0.665842592716217,-0.38179048895835876,-0.37140578031539917
1766385755195038700,5.866038818359375,-0.573602020740509,-0.3084867000579834,0.1331685185432434
1766385755212001000,5.8830009765625,-0.14538581669330597,-0.014049889519810677,0.5583304166793823
1766385755228963300,5.89996337890625,0.011606430634856224,0.07757982611656189,0.5558869242668152
1766385755245925600,5.916925537109375,-0.26878049969673157,0.13927717506885529,0.3695732057094574
1766385755262888000,5.933887939453125,-0.1899789422750473,0.002443459117785096,-0.18203771114349365
1766385755279850200,5.950850341796875,0.24862197041511536,-0.04825831577181816,-0.11606431007385254
1766385755296812500,5.9678125,0.5290089249610901,-0.24740023910999298,0.10506874322891235
1766385755313774800,5.98477490234375,0.544891357421875,-0.49663305282592773,0.3597993552684784
1766385755330737200,6.001737060546875,0.45998117327690125,-0.4361574649810791,0.822834849357605
1766385755347699500,6.018699462890625,0.3017672002315521,-0.47097674012184143,0.9737184643745422
1766385755364661800,6.035661865234375,-0.46059203147888184,-0.18203771114349365,0.11362084746360779
1766385755381624000,6.0526240234375,-1.2021819353103638,0.27550002932548523,-0.6017017960548401
1766385755398586400,6.06958642578125,-1.3158026933670044,0.32070401310920715,1.2932007312774658
1766385755415549000,6.086548828125,-1.1991275548934937,0.3231474757194519,0.1081230640411377
1766385755432511000,6.103510986328125,-1.125823736190796,0.2406807243824005,-0.6517927050590515
1766385755449473300,6.120473388671875,-1.1856884956359863,0.2987128794193268,-0.4557051360607147
1766385755466435600,6.137435546875,-1.416595458984375,0.3292561173439026,0.036651886999607086
1766385755483398000,6.15439794921875,-1.545487880706787,0.3549124300479889,0.45937031507492065
1766385755500360200,6.171360107421875,-1.5210533142089844,0.32681265473365784,0.6743947267532349
1766385755517322800,6.18832275390625,-1.2675443887710571,0.3274235129356384,0.6976075768470764
1766385755534285000,6.20528515625,-0.7721330523490906,0.5662716627120972,0.6939423680305481
1766385755551247400,6.222247314453125,-0.3182605504989624,0.6328558921813965,0.6328558921813965
1766385755568209700,6.239209716796875,-0.10384701192378998,0.8833104968070984,0.5106829404830933
1766385755585172000,6.256171875,-0.2706131041049957,0.9963204264640808,0.48075059056282043
1766385755602134300,6.27313427734375,-0.5754346251487732,1.1056652069091797,0.46486809849739075
1766385755619096600,6.2900966796875,-0.7996219992637634,0.9419534802436829,0.3084867000579834
1766385755636059000,6.307058837890625,-0.7806851863861084,0.7049379348754883,0.08307760953903198
1766385755653021200,6.324021240234375,-0.471587598323822,0.667064368724823,-0.04276053607463837
1766385755669983500,6.3409833984375,-0.32009315490722656,0.4630354940891266,-0.023823726922273636
1766385755686945800,6.35794580078125,-0.24495677649974823,0.4935787320137024,0.004276053514331579
1766385755703908000,6.374908203125,-0.2419024556875229,0.33231043815612793,-0.287106454372406
1766385755720870400,6.391870361328125,-0.06963858753442764,0.16737695038318634,-0.6591231226921082
1766385755737832700,6.408832763671875,0.2461785078048706,-0.10140355676412582,-0.7452550530433655
1766385755754795000,6.425794921875,0.6334667801856995,-0.17715078592300415,-0.38728827238082886
1766385755771757300,6.44275732421875,1.0054833889007568,-0.2767217457294464,0.017104214057326317
1766385755788719600,6.4597197265625,1.2541054487228394,-0.2461785078048706,0.4526508152484894
1766385755805682000,6.476681884765625,1.2253947257995605,-0.1545487940311432,0.6866120100021362
1766385755822644200,6.493644287109375,0.8362739086151123,-0.23884813487529755,0.5088503360748291
1766385755839606500,6.5106064453125,0.5754346251487732,-0.12644900381565094,0.014660755172371864
1766385755856568800,6.52756884765625,0.38728827238082886,-0.39767298102378845,-0.10751219838857651
1766385755873531100,6.54453125,0.7244856357574463,-0.1496618688106537,-0.15027274191379547
1766385755890493700,6.56149365234375,1.0103703737258911,-0.47586366534233093,-0.3298669755458832
1766385755907456000,6.5784560546875,1.1148282289505005,-0.430659681558609,-0.45998117327690125
1766385755924418300,6.595418212890625,0.9144645929336548,-0.500298261642456,-0.6774490475654602
1766385755941380400,6.61238037109375,0.27488914132118225,-0.4514290690422058,-0.9834923148155212
1766385755958343000,6.629343017578125,-0.7690787315368652,-0.42088583111763,-0.6389645338058472
1766385755975305200,6.64630517578125,-1.0299180746078491,-0.27427828311920166,-0.545502245426178
1766385755992267500,6.663267578125,-0.9767727851867676,-0.4221075773239136,-0.6261364221572876
1766385756009229800,6.680229736328125,-0.880256175994873,-0.4831940531730652,-0.5216785073280334
1766385756026192100,6.697192138671875,-1.092226266860962,-0.35063639283180237,-0.4001164436340332
1766385756043154400,6.714154541015625,-1.2363903522491455,-0.26511532068252563,-0.287106454372406
1766385756060116700,6.73111669921875,-1.3158026933670044,-0.19792018830776215,-0.14294235408306122
1766385756077079000,6.7480791015625,-1.4086542129516602,-0.1747073233127594,-0.0922405794262886
1766385756094041300,6.765041259765625,-1.3628393411636353,-0.07024945318698883,-0.053756099194288254
1766385756111003600,6.782003662109375,-1.1514800786972046,0.1081230640411377,-0.04276053607463837
1766385756127966200,6.79896630859375,-0.6334667801856995,0.20830489695072174,-0.09162971377372742
1766385756144928500,6.815928466796875,-0.17837251722812653,0.037262752652168274,-0.24006985127925873
1766385756161890800,6.832890869140625,-0.12767073512077332,-0.020158538594841957,-0.3689623177051544
1766385756178853000,6.84985302734375,-0.6487383842468262,0.01649334840476513,-0.22235478460788727
1766385756195815400,6.8668154296875,-1.0836740732192993,0.29016077518463135,-0.08429934084415436
1766385756212777700,6.88377783203125,-1.036637544631958,0.37690356373786926,-0.3249800503253937
1766385756229740000,6.900739990234375,-0.7330377101898193,0.3640754222869873,-0.7476984858512878
1766385756246702300,6.917702392578125,-0.46364638209342957,0.39217519760131836,-0.6243038177490234
1766385756263664600,6.93466455078125,-0.39339691400527954,0.2315177470445633,0.3396408259868622
1766385756280627000,6.951626953125,-0.03848448023200035,0.9004147052764893,1.3432916402816772
1766385756297589500,6.968589599609375,0.13194678723812103,0.8497129082679749,1.1545344591140747
1766385756314551800,6.9855517578125,0.2211330533027649,0.6847794055938721,0.8240565657615662
1766385756331514000,7.00251416015625,0.22174391150474548,0.2932150959968567,0.6640099883079529
1766385756348476400,7.019476318359375,0.2981020212173462,0.4166097939014435,0.7446441650390625
1766385756365438700,7.036438720703125,0.049480047076940536,0.2816086709499359,0.6902772188186646
1766385756382401000,7.053401123046875,-0.21746785938739777,0.4508182108402252,0.7018836140632629
1766385756399363300,7.07036328125,-0.638353705406189,0.6243038177490234,0.8710931539535522
1766385756416325600,7.08732568359375,-0.7733548283576965,0.7800742983818054,0.8759800791740417
1766385756433288200,7.1042880859375,-0.8796452879905701,0.6798924803733826,0.7525854110717773
1766385756450250500,7.12125048828125,-0.8161153197288513,0.5039634704589844,0.8710931539535522
1766385756467212800,7.138212890625,-0.4569268524646759,0.648127555847168,1.0360267162322998
1766385756484175000,7.155175048828125,0.12095122784376144,0.748920202255249,0.8222240209579468
1766385756501137400,7.172137451171875,0.526565432548523,0.6798924803733826,0.5381718873977661
1766385756518099700,7.189099609375,0.6603448390960693,0.7599157691001892,0.8289434909820557
1766385756535062000,7.20606201171875,0.5907062292098999,0.7550288438796997,1.3665045499801636
1766385756552024600,7.223024658203125,0.7721330523490906,0.8442151546478271,1.4929535388946533
1766385756568987000,7.23998681640625,1.0415244102478027,0.8179479241371155,1.1710277795791626
1766385756585949200,7.25694921875,1.1490366458892822,0.8167262077331543,0.8649845123291016
1766385756602911500,7.273911376953125,1.1514800786972046,0.831997811794281,0.6603448390960693
1766385756619873800,7.290873779296875,1.2901464700698853,0.8075632452964783,0.6261364221572876
1766385756636836400,7.30783642578125,1.2712095975875854,0.7452550530433655,0.8155044913291931
1766385756653798700,7.324798583984375,1.3897173404693604,0.7141009569168091,1.3823870420455933
1766385756670761000,7.341760986328125,1.5027273893356323,0.9095776677131653,1.9688172340393066
1766385756687723300,7.35872314453125,1.3322961330413818,1.0238093137741089,1.998138666152954
1766385756704685600,7.375685546875,1.0476330518722534,0.8668171167373657,1.1789690256118774
1766385756721648000,7.392648193359375,0.8600975871086121,0.648127555847168,0.3017672002315521
1766385756738610400,7.4096103515625,0.9718858599662781,0.6249146461486816,-0.536339282989502
1766385756755572700,7.42657275390625,0.8051197528839111,0.4935787320137024,-1.0421353578567505
1766385756772535000,7.44353515625,0.2938259541988373,0.5986474752426147,-0.8808670043945312
1766385756789497300,7.460497314453125,-0.3530798554420471,0.6181951761245728,-0.3445277214050293
1766385756806460000,7.4774599609375,-0.9498947262763977,0.5387827157974243,-0.04520399495959282
1766385756823422200,7.494422119140625,-1.1606431007385254,0.38301220536231995,-0.3274235129356384
1766385756840384500,7.511384521484375,-0.8851430416107178,0.15760311484336853,-0.9425643682479858
1766385756857346800,7.528346923828125,-0.4056142270565033,-0.06108647957444191,-1.5070034265518188
1766385756874309400,7.545309326171875,-0.23945899307727814,-0.4477638900279999,-1.6908737421035767
1766385756908234000,7.57923388671875,-1.1368193626403809,-0.6957749724388123,-0.6065887212753296
1766385756925196300,7.5961962890625,-0.9694424271583557,-0.1380554437637329,-0.7745765447616577
1766385756959121200,7.63012109375,-0.28588470816612244,-0.9523382186889648,-1.2620465755462646
1766385756976083500,7.64708349609375,-0.1954767256975174,-0.6169734001159668,-0.3139844834804535
1766385756993046000,7.6640458984375,-0.20280711352825165,-0.4618137776851654,0.42882707715034485
1766385757010008300,7.68100830078125,-0.36712974309921265,-0.48563748598098755,1.2021819353103638
1766385757026970600,7.697970703125,-0.4471530318260193,-0.09285144507884979,1.6053526401519775
1766385757043933000,7.714932861328125,-0.5571087002754211,-0.1484401375055313,1.3072506189346313
1766385757060895500,7.7318955078125,-0.6646208763122559,-0.15210533142089844,0.768467903137207
1766385757077857800,7.74885791015625,-0.8912517428398132,-0.18631376326084137,0.49418962001800537
1766385757094820000,7.765820068359375,-1.2253947257995605,-0.18631376326084137,0.62857985496521
1766385757111782400,7.782782470703125,-1.4178171157836914,-0.07147117704153061,0.794124186038971
1766385757137226000,7.80822607421875,-1.1679733991622925,-0.0256563201546669,0.49113526940345764
1766385757154188500,7.8251884765625,-0.8478803038597107,-0.09896009415388107,0.1649334877729416
1766385757171150800,7.84215087890625,-0.41294458508491516,0.01954767294228077,-0.06230820715427399
1766385757188113200,7.859113037109375,-0.1692095398902893,0.02932151034474373,-0.1802051067352295
1766385757205075500,7.876075439453125,-0.0769689604640007,0.07574722915887833,-0.12705987691879272
1766385757222038000,7.8930380859375,-0.012217295356094837,0.14538581669330597,0.002443459117785096
1766385757239000300,7.910000244140625,0.03298669680953026,0.14721840620040894,0.031154103577136993
1766385757255963000,7.926962890625,0.07819069176912308,0.17531819641590118,0.06475166976451874
1766385757272925200,7.94392529296875,0.07391463965177536,0.19425499439239502,0.1692095398902893
1766385757289887500,7.960887451171875,0.04214967042207718,0.1893680840730667,0.23823726177215576
1766385757306850000,7.97785009765625,0.023823726922273636,0.16187916696071625,0.18631376326084137
1766385757323812400,7.994812255859375,-0.004886918235570192,0.143553227186203,0.1178968995809555
1766385757340774700,8.011774658203125,-0.10018182545900345,0.07757982611656189,0.10201441496610641
1766385757357737200,8.0287373046875,-0.23396120965480804,0.007330377586185932,0.06230820715427399
1766385757374699500,8.045699462890624,-0.31520622968673706,-0.08063415437936783,-0.10140355676412582
1766385757391661800,8.062661865234375,-0.24740023910999298,-0.09407317638397217,-0.4935787320137024
1766385757408624400,8.079624267578126,-0.24556763470172882,-0.2406807243824005,-0.9334014058113098
1766385757425586700,8.096586669921875,-0.2156352698802948,-0.20341797173023224,-0.8368847370147705
1766385757442549200,8.11354931640625,-0.25411975383758545,-0.040317077189683914,-0.3750709891319275
1766385757459511600,8.130511474609374,-0.23762640357017517,0.03543015569448471,-0.05253437161445618
1766385757476473900,8.147473876953125,-0.14049890637397766,0.012217295356094837,-0.033597562462091446
1766385757493436400,8.1644365234375,-0.143553227186203,0.014660755172371864,-0.2260199636220932
1766385757510398700,8.181398681640625,-0.37201663851737976,-0.12522727251052856,-0.4416552484035492
1766385757527361000,8.198361083984375,-0.45937031507492065,-0.17287473380565643,-0.33658650517463684
1766385757544323600,8.215323486328124,-0.3066541254520416,-0.1185077652335167,0.039706211537122726
1766385757561286000,8.232285888671875,-0.10629047453403473,-0.08124501258134842,0.35246896743774414
1766385757578248400,8.24924853515625,0.02871064469218254,-0.09407317638397217,0.555276095867157
1766385757595210800,8.266210693359374,0.17653992772102356,-0.047036588191986084,0.6432406306266785
1766385757612173300,8.28317333984375,0.27000224590301514,-0.08124501258134842,0.6255255341529846
1766385757629135600,8.300135498046876,0.2663370370864868,-0.1130099818110466,0.5247328281402588
1766385757646098000,8.317097900390625,0.2767217457294464,-0.19669845700263977,0.5277871489524841
1766385757663060500,8.334060546875,0.47464191913604736,-0.2370155304670334,0.573602020740509
1766385757680023000,8.35102294921875,0.7031053900718689,-0.31093016266822815,0.5949822664260864
1766385757696985300,8.3679853515625,0.8484911918640137,-0.24984370172023773,0.6157516837120056
1766385757713947600,8.38494775390625,0.7739656567573547,-0.19669845700263977,0.5503891706466675
1766385757730910200,8.40191015625,0.6096430420875549,-0.268169641494751,0.2559523284435272
1766385757747872500,8.41887255859375,0.6524035930633545,-0.379347026348114,-0.09040798991918564
1766385757764835000,8.4358349609375,0.8930842876434326,-0.3695732057094574,-0.1490510106086731
1766385757781797400,8.45279736328125,1.0177006721496582,-0.23029601573944092,0.10629047453403473
1766385757798760000,8.469760009765626,0.8570432662963867,-0.12278381735086441,0.39339691400527954
1766385757815722200,8.48672216796875,0.6798924803733826,-0.013439024798572063,0.3536907136440277
1766385757832684800,8.503684814453125,0.8216131329536438,0.06536252796649933,-0.1637117564678192
1766385757849647000,8.520647216796876,1.1123847961425781,0.08307760953903198,-0.8429933786392212
1766385757866609700,8.537609619140625,1.2858703136444092,0.004276053514331579,-1.2944225072860718
1766385757883572000,8.554572021484375,1.3249657154083252,-0.13500112295150757,-1.390328288078308
1766385757900534500,8.571534423828124,1.4184280633926392,-0.09896009415388107,-1.3060288429260254
1766385757917496800,8.588496826171875,1.4941751956939697,-0.19120067358016968,-1.239444613456726
1766385757934459400,8.60545947265625,1.4764602184295654,-0.2107483446598053,-1.1618647575378418
1766385757951421700,8.622421630859375,1.380554437637329,-0.2834412455558777,-1.1777472496032715
1766385757968384300,8.63938427734375,1.237612009048462,-0.39217519760131836,-1.1398736238479614
1766385757985346600,8.6563466796875,1.3359612226486206,-0.5106829404830933,-1.360395908355713
1766385758002309000,8.67330908203125,1.4966187477111816,-0.5558869242668152,-1.545487880706787
1766385758019271400,8.690271484375,1.4288127422332764,-0.45998117327690125,-1.3738348484039307
1766385758036234000,8.70723388671875,0.9669989347457886,-0.4043924808502197,-0.9334014058113098
1766385758053196300,8.7241962890625,0.5271763205528259,-0.4367683231830597,-0.7825177907943726
1766385758070158800,8.741158935546874,0.4269944727420807,-0.430659681558609,-1.099556565284729
1766385758087121200,8.75812109375,0.5070177912712097,-0.42455101013183594,-1.729358196258545
1766385758104083700,8.775083740234376,0.5369501113891602,-0.45509424805641174,-2.098931312561035
1766385758121046300,8.79204638671875,0.5473348498344421,-0.45875945687294006,-2.0836596488952637
1766385758138008600,8.809008544921875,0.5338957905769348,-0.5143481492996216,-1.9859213829040527
1766385758154971000,8.825970947265626,0.41844236850738525,-0.5864301919937134,-2.017686367034912
1766385758171933400,8.842933349609375,0.29016077518463135,-0.42394015192985535,-1.8460333347320557
1766385758188896000,8.85989599609375,0.06230820715427399,-0.23335035145282745,-1.545487880706787
1766385758205858300,8.8768583984375,0.018325943499803543,-0.15699224174022675,-1.3054180145263672
1766385758222820900,8.89382080078125,0.16249002516269684,-0.17776164412498474,-1.0830632448196411
1766385758239783200,8.910783203125,0.481361448764801,-0.19425499439239502,-0.8857539296150208
1766385758256745700,8.927745849609375,0.8875865340232849,-0.10201441496610641,-0.5473348498344421
1766385758273708300,8.944708251953125,0.9853248596191406,0.37323838472366333,-0.7122683525085449
1766385758290670600,8.961670654296874,0.4068359434604645,0.5894845128059387,-0.001832594396546483
1766385758307633200,8.978633056640625,0.006719512399286032,0.05558869615197182,-0.3952295184135437
1766385758324595500,8.995595458984376,-0.24251331388950348,-0.1380554437637329,-0.3127627670764923
1766385758341558000,9.01255810546875,-0.3402516841888428,0.06841685622930527,-0.11911863088607788
1766385758358520300,9.029520263671875,-0.30115634202957153,0.07269290834665298,0.06963858753442764
1766385758375483000,9.04648291015625,-0.35246896743774414,-0.185092031955719,-0.07330377399921417
1766385758392445400,9.063445556640625,-0.2883281707763672,-0.5125155448913574,-0.32620179653167725
1766385758409407700,9.08040771484375,-0.011606430634856224,-0.19669845700263977,-0.33231043815612793
1766385758426370300,9.097370361328124,0.6090322136878967,0.13683371245861053,-0.0409279391169548
1766385758443332600,9.11433251953125,0.6890554428100586,0.20891575515270233,0.25045454502105713
1766385758460295200,9.131295166015626,0.35124725103378296,0.04886918142437935,0.09040798991918564
1766385758477257700,9.1482578125,0.17226386070251465,0.10445787757635117,-0.10751219838857651
1766385758494220000,9.165219970703125,0.23762640357017517,0.18203771114349365,-0.1081230640411377
1766385758511182600,9.1821826171875,0.20708316564559937,0.5577195286750793,0.16615521907806396
1766385758528145000,9.199144775390625,0.1484401375055313,0.6444623470306396,0.4740310609340668
1766385758545107500,9.216107421875,0.14233149588108063,0.27427828311920166,0.5155698657035828
1766385758562070000,9.233070068359375,0.15210533142089844,0.13500112295150757,0.4874700903892517
1766385758579032300,9.2500322265625,0.24312418699264526,0.13927717506885529,0.6157516837120056
1766385758595995000,9.266994873046874,0.017104214057326317,-0.12095122784376144,0.5210676789283752
1766385758612957400,9.28395751953125,-0.32131487131118774,-0.430659681558609,0.11667517572641373
1766385758629919700,9.300919677734376,-0.04276053607463837,-0.526565432548523,0.007941242307424545
1766385758646882300,9.31788232421875,1.0488548278808594,-0.5821541547775269,0.4984656572341919
1766385758663844900,9.334844970703125,1.018311619758606,-0.32070401310920715,0.5998691916465759
1766385758680807200,9.35180712890625,0.5803215503692627,0.07757982611656189,0.22663083672523499
1766385758697769700,9.368769775390625,0.8020654320716858,0.22479823231697083,0.56382817029953
1766385758714732300,9.385732177734376,0.7336485981941223,0.18264856934547424,0.6646208763122559
1766385758731694600,9.402694580078125,0.3451386094093323,0.06108647957444191,0.6682860851287842
1766385758748657200,9.4196572265625,-0.14477495849132538,-0.11178825795650482,0.41355544328689575
1766385758765619700,9.43661962890625,-0.43493571877479553,-0.19242240488529205,0.13255766034126282
1766385758782582000,9.45358203125,-0.5229002237319946,-0.29443681240081787,-0.05925388261675835
1766385758799544600,9.470544677734376,-0.3396408259868622,-0.07024945318698883,0.053145237267017365
1766385758816507100,9.487507080078124,-0.027488915249705315,0.11362084746360779,0.2834412455558777
1766385758833469400,9.504469482421875,0.1337793916463852,-0.0054977829568088055,0.29016077518463135
1766385758850432000,9.521431884765626,0.3426951467990875,-0.1178968995809555,0.42394015192985535
1766385758867394600,9.53839453125,0.46975502371788025,-0.12950333952903748,0.48013970255851746
1766385758884356900,9.55535693359375,0.4050033390522003,-0.07635809481143951,0.42821621894836426
1766385758901319400,9.5723193359375,0.3170388340950012,-0.049480047076940536,0.3439168632030487
1766385758918282000,9.589281982421875,0.27427828311920166,0.07941242307424545,0.23212862014770508
1766385758935244300,9.606244384765626,0.22724169492721558,0.0818558782339096,0.09468404203653336
1766385758952206800,9.623206787109375,-0.000610864779446274,-0.04825831577181816,-0.023823726922273636
1766385758969169200,9.640169189453125,-0.21991132199764252,-0.2052505612373352,-0.06047561392188072
1766385758986131700,9.657131591796874,-0.2932150959968567,-0.21380266547203064,-0.09040798991918564
1766385759003094300,9.67409423828125,-0.24251331388950348,-0.017104214057326317,-0.08124501258134842
1766385759020056600,9.691056640625,-0.06352993845939636,0.08613193035125732,0.0030543238390237093
1766385759037019100,9.70801904296875,0.004276053514331579,-0.011606430634856224,0.18325942754745483
1766385759053981700,9.724981689453125,0.09346231073141098,-0.02260199747979641,0.19242240488529205
1766385759070944000,9.741944091796874,0.14233149588108063,-0.16798780858516693,0.16676609218120575
1766385759087906600,9.758906494140625,0.056199558079242706,-0.22724169492721558,0.13194678723812103
1766385759104869000,9.775869140625,-0.030543239787220955,-0.25534147024154663,0.10690133273601532
1766385759121831400,9.79283154296875,-0.09162971377372742,-0.27855435013771057,0.001832594396546483
1766385759138794000,9.8097939453125,-0.1337793916463852,-0.16554436087608337,0.22296564280986786
1766385759155756500,9.826756591796874,-0.20891575515270233,-0.1844811588525772,0.3280344009399414
1766385759172719000,9.843718994140625,-0.22174391150474548,-0.2162461280822754,0.3396408259868622
1766385759189681400,9.860681396484376,-0.4214966893196106,-0.3970620930194855,0.4001164436340332
1766385759206644000,9.87764404296875,-0.4685332775115967,-0.4068359434604645,0.13194678723812103
1766385759223606500,9.8946064453125,-0.5094612240791321,-0.01282816007733345,-0.04153880476951599
1766385759240568800,9.91156884765625,-0.21807873249053955,0.7635809779167175,-0.31459537148475647
1766385759257531400,9.928531494140625,-0.17348559200763702,0.1692095398902893,-0.7177661061286926
1766385759274494000,9.945493896484376,-0.25350889563560486,-0.22907429933547974,-0.7257073521614075
1766385759291456500,9.96245654296875,0.07024945318698883,-0.12156209349632263,-0.5436696410179138
1766385759308418800,9.979418701171875,0.38179048895835876,0.07391463965177536,-0.2211330533027649
1766385759325381400,9.99638134765625,0.337808221578598,-0.014660755172371864,-0.22907429933547974
1766385759342344000,10.013343994140625,0.049480047076940536,-0.16126830875873566,-0.2968802750110626
1766385759359306500,10.030306396484375,-0.13072505593299866,-0.23335035145282745,-0.3121519088745117
1766385759376268800,10.047268798828124,-0.01588248461484909,-0.006719512399286032,-0.16737695038318634
1766385759393231400,10.0642314453125,0.001221729558892548,0.3084867000579834,0.06352993845939636
1766385759410194000,10.08119384765625,-0.13133592903614044,0.19730933010578156,0.053145237267017365
1766385759427156200,10.09815625,-0.3439168632030487,-0.2052505612373352,0.05558869615197182
1766385759444118800,10.115118896484375,-0.5662716627120972,0.18325942754745483,0.44959646463394165
1766385759461081300,10.132081298828124,-0.30115634202957153,0.05803215503692627,-0.16187916696071625
1766385759478044000,10.1490439453125,0.12278381735086441,-0.03787361457943916,-0.04825831577181816
1766385759495006200,10.166006103515626,0.10384701192378998,-0.049480047076940536,-0.05864302068948746
1766385759511968800,10.18296875,-0.1545487940311432,-0.205861434340477,-0.2211330533027649
1766385759528931300,10.199931396484375,-0.09346231073141098,-0.28405213356018066,-0.30482152104377747
1766385759545894000,10.216893798828124,0.23212862014770508,-0.039706211537122726,-0.15638138353824615
1766385759562856200,10.233856201171875,0.21441353857517242,-0.18814635276794434,-0.010995565913617611
1766385759579818800,10.25081884765625,0.03176496922969818,-0.3072649836540222,-0.5088503360748291
1766385759596781300,10.26778125,0.07391463965177536,-0.19669845700263977,-0.6976075768470764
1766385759613743600,10.28474365234375,0.18875721096992493,-0.0360410213470459,-0.813671886920929
1766385759630706200,10.3017060546875,0.1288924664258957,0.021380268037319183,-0.676227331161499
1766385759647668700,10.318668701171875,-0.09529490768909454,0.009773836471140385,-0.4514290690422058
1766385759664631300,10.33563134765625,-0.2419024556875229,-0.08124501258134842,-0.3860665261745453
1766385759681593900,10.35259375,-0.2706131041049957,-0.1545487940311432,-0.4453204274177551
1766385759698556200,10.36955615234375,-0.009162971749901772,-0.03787361457943916,-0.33597561717033386
1766385759715518700,10.386518798828124,0.03237583488225937,0.027488915249705315,-0.21502439677715302
1766385759732481300,10.403481201171875,0.0256563201546669,0.09346231073141098,-0.021991131827235222
1766385759749443800,10.42044384765625,0.020158538594841957,0.13744457066059113,0.1588248461484909
1766385759766406100,10.43740625,0.0030543238390237093,0.08002328872680664,0.08063415437936783
1766385759783368700,10.45436865234375,-0.08124501258134842,0.08613193035125732,0.040317077189683914
1766385759800331300,10.471331298828124,-0.06230820715427399,0.039706211537122726,0.020769402384757996
1766385759817293800,10.4882939453125,0.025045456364750862,0.03909534588456154,0.037262752652168274
1766385759834256100,10.505256103515626,0.028099779039621353,0.06719512492418289,0.06841685622930527
1766385759851218700,10.52221875,-0.009773836471140385,0.09651663154363632,0.12583814561367035
1766385759868181200,10.53918115234375,-0.007941242307424545,0.06230820715427399,0.07452550530433655
1766385759885143800,10.556143798828124,0.030543239787220955,0.06291907280683517,0.07757982611656189
1766385759902106000,10.573106201171875,-0.03481929376721382,0.03543015569448471,0.05558869615197182
1766385759919068700,10.590068603515626,-0.056810423731803894,0.034208428114652634,0.22846342623233795
1766385759936031200,10.60703125,-0.020158538594841957,0.011606430634856224,0.3347539007663727
1766385759952993800,10.623993896484375,-0.014660755172371864,0.029932374134659767,0.37262752652168274
1766385759969956400,10.640956298828126,-0.17531819641590118,0.04276053607463837,0.4105011224746704
1766385759986918700,10.657918701171875,-0.3231474757194519,-0.10445787757635117,0.4202749729156494
1766385760003881200,10.674881103515625,-0.18753549456596375,-0.21135921776294708,0.3958403766155243
1766385760020843800,10.69184375,0.001832594396546483,-0.11972949653863907,0.38789913058280945
1766385760037806300,10.708806396484375,-0.015271619893610477,0.002443459117785096,0.3439168632030487
1766385760054768600,10.7257685546875,-0.09407317638397217,0.05925388261675835,0.35735589265823364
1766385760071731200,10.742731201171875,-0.24923282861709595,-0.023823726922273636,0.3029889166355133
1766385760088693800,10.75969384765625,-0.1948658674955368,-0.09590577334165573,0.258395791053772
1766385760105656300,10.77665625,-0.028099779039621353,0.009162971749901772,0.28954991698265076
1766385760122618600,10.79361865234375,-0.021991131827235222,0.09285144507884979,0.3023780584335327
1766385760139581200,10.810581298828126,-0.056199558079242706,0.10629047453403473,0.2718348205089569
1766385760156543700,10.827543701171875,-0.027488915249705315,0.031154103577136993,0.11606431007385254
1766385760173506300,10.84450634765625,0.04825831577181816,-0.0054977829568088055,-0.049480047076940536
1766385760190468900,10.86146875,0.14660754799842834,0.017104214057326317,-0.3072649836540222
1766385760207431200,10.87843115234375,0.09407317638397217,-0.01588248461484909,-0.5174024701118469
1766385760224393700,10.895393798828126,0.05497783049941063,0.043371398001909256,-0.5864301919937134
1766385760241356300,10.912356201171875,0.10384701192378998,0.10018182545900345,-0.37140578031539917
1766385760258318800,10.92931884765625,0.12095122784376144,0.14294235408306122,-0.3090975880622864
1766385760275281400,10.946281494140624,0.14110976457595825,0.13439024984836578,-0.2260199636220932
1766385760292244000,10.963243896484375,0.18387030065059662,0.1288924664258957,-0.049480047076940536
1766385760309206300,10.980206298828126,0.1795942485332489,0.09285144507884979,0.24923282861709595
1766385760326168800,10.9971689453125,0.13500112295150757,0.05742128938436508,0.31093016266822815
1766385760343131400,11.01413134765625,0.08613193035125732,0.02932151034474373,0.33047783374786377
1766385760360094000,11.031093994140624,0.008552107028663158,0.050090912729501724,0.24556763470172882
1766385760377056300,11.04805615234375,-0.024434590712189674,-0.05742128938436508,0.17837251722812653
1766385760394018800,11.065018798828126,0.014660755172371864,-0.11667517572641373,0.2816086709499359
1766385760410981400,11.0819814453125,0.028099779039621353,0.05192350596189499,0.38301220536231995
1766385760427944000,11.09894384765625,0.04214967042207718,0.08307760953903198,0.4831940531730652
1766385760444906500,11.115906494140624,0.03176496922969818,0.004276053514331579,0.22968515753746033
1766385760461869000,11.132869140625,0.02260199747979641,0.047036588191986084,0.1539379209280014
1766385760478831400,11.149831298828126,0.010384701192378998,0.09285144507884979,0.08307760953903198
1766385760495794000,11.1667939453125,0.053145237267017365,0.01588248461484909,-0.039706211537122726
1766385760512756500,11.183756591796875,0.05864302068948746,0.0665842592716217,-0.08857539296150208
1766385760529719000,11.200718994140624,-0.07147117704153061,0.0922405794262886,-0.18570289015769958
1766385760546681600,11.217681640625,-0.10018182545900345,0.10384701192378998,-0.17715078592300415
1766385760563644200,11.23464404296875,0.07024945318698883,0.02260199747979641,-0.07330377399921417
1766385760580606500,11.2516064453125,0.06780599057674408,0.023823726922273636,0.031154103577136993
1766385760597569000,11.268569091796875,0.06108647957444191,0.01954767294228077,0.006719512399286032
1766385760614531600,11.285531494140624,0.05253437161445618,0.018325943499803543,-0.04276053607463837
1766385760631494100,11.302494140625,0.04520399495959282,0.01588248461484909,-0.010995565913617611
1766385760648456700,11.319456787109376,0.0409279391169548,0.015271619893610477,0.01649334840476513
1766385760665419000,11.3364189453125,0.0360410213470459,0.014049889519810677,-0.002443459117785096
1766385760682381600,11.353381591796875,0.033597562462091446,0.01588248461484909,0.020158538594841957
1766385760699344100,11.37034423828125,0.033597562462091446,0.012217295356094837,0.01893680728971958
1766385760716306700,11.387306640625,0.02626718580722809,0.011606430634856224,-0.03787361457943916
1766385760733269200,11.404269287109376,0.021991131827235222,-0.000610864779446274,-0.06780599057674408
1766385760750231600,11.4212314453125,0.03237583488225937,-0.04214967042207718,-0.39767298102378845
1766385760767194000,11.438194091796875,-0.006108647678047419,0.056810423731803894,-0.5827649831771851
1766385760784156700,11.45515673828125,0.007941242307424545,-0.021991131827235222,-0.21930044889450073
1766385760801119200,11.472119140625,0.028099779039621353,-0.021380268037319183,-0.12217295914888382
1766385760818081800,11.489081787109376,-0.011606430634856224,0.0030543238390237093,-0.006719512399286032
1766385760835044400,11.50604443359375,-0.10567960888147354,0.05742128938436508,-0.10018182545900345
1766385760852007000,11.5230068359375,-0.18081597983837128,0.06475166976451874,-0.2467893660068512
1766385760868969200,11.53996923828125,-0.1637117564678192,-0.06475166976451874,-0.3182605504989624
1766385760885931800,11.556931884765625,-0.08979712426662445,-0.1380554437637329,-0.4202749729156494
1766385760902894300,11.573894287109376,-0.04214967042207718,-0.11667517572641373,-0.4563159942626953
1766385760919857000,11.59085693359375,-0.09834922850131989,-0.04825831577181816,-0.3451386094093323
1766385760936819500,11.6078193359375,-0.11362084746360779,-0.01893680728971958,-0.14782927930355072
1766385760953781800,11.62478173828125,-0.0665842592716217,-0.03787361457943916,0.06719512492418289
1766385760970744300,11.641744384765625,-0.10018182545900345,-0.07269290834665298,0.07574722915887833
1766385760987707000,11.658706787109375,-0.1490510106086731,-0.11545344442129135,-0.03481929376721382
1766385761004669400,11.67566943359375,-0.16004657745361328,-0.12278381735086441,-0.027488915249705315
1766385761021632000,11.692632080078125,-0.009773836471140385,-0.02932151034474373,0.2767217457294464
1766385761038594300,11.70959423828125,0.06780599057674408,0.004276053514331579,0.5070177912712097
1766385761055556900,11.726556884765625,0.017104214057326317,0.050090912729501724,0.46608981490135193
1766385761072519400,11.74351953125,-0.09040798991918564,0.10201441496610641,0.25961753726005554
1766385761089482000,11.76048193359375,-0.14599667489528656,0.07452550530433655,0.13194678723812103
1766385761106444500,11.777444580078125,-0.009162971749901772,0.053756099194288254,0.21807873249053955
1766385761123406800,11.79440673828125,0.06047561392188072,0.049480047076940536,0.3451386094093323
1766385761140369400,11.811369384765625,0.056199558079242706,0.07391463965177536,0.32009315490722656
1766385761157332000,11.82833203125,0.017104214057326317,0.11056652665138245,0.1954767256975174
1766385761174294500,11.84529443359375,0.010995565913617611,0.08674279600381851,0.07086031138896942
1766385761191257000,11.862257080078125,0.03909534588456154,0.06536252796649933,0.06597339361906052
1766385761208219600,11.8792197265625,0.06475166976451874,0.03298669680953026,0.14110976457595825
1766385761225182000,11.896181884765625,0.05497783049941063,0.01893680728971958,0.29443681240081787
1766385761242144500,11.91314453125,0.04276053607463837,0.04276053607463837,0.5662716627120972
1766385761259107000,11.930107177734374,0.001832594396546483,0.05253437161445618,0.768467903137207
1766385761276069600,11.947069580078125,-0.05192350596189499,0.07024945318698883,1.008537769317627
1766385761293032200,11.9640322265625,-0.07757982611656189,0.36774060130119324,1.028085470199585
1766385761309994800,11.980994873046875,0.08918625861406326,0.07819069176912308,-0.4984656572341919
1766385761326957000,11.99795703125,0.040317077189683914,-0.01588248461484909,-1.99630606174469
1766385761343919600,12.014919677734374,0.06230820715427399,-0.06108647957444191,-1.441640853881836
1766385761360882200,12.031882080078125,0.04214967042207718,0.02932151034474373,0.24495677649974823
1766385761377844700,12.0488447265625,0.02260199747979641,0.04276053607463837,0.6835576891899109
1766385761394807300,12.065807373046875,0.028099779039621353,0.0030543238390237093,-0.059864748269319534
1766385761411769900,12.082769775390625,0.018325943499803543,0.000610864779446274,-0.36163195967674255
1766385761428732400,12.099732421875,0.020769402384757996,0.03298669680953026,0.05864302068948746
1766385761454176000,12.125176025390624,0.024434590712189674,0.021991131827235222,0.007330377586185932
1766385761471138600,12.142138671875,0.01954767294228077,0.023823726922273636,-0.14233149588108063
1766385761488101000,12.15910107421875,0.012217295356094837,0.021991131827235222,0.03543015569448471
1766385761505063700,12.176063720703125,-0.001221729558892548,0.015271619893610477,0.050090912729501724
1766385761522026200,12.193026123046875,-0.02260199747979641,0.001221729558892548,-0.003665188793092966
1766385761538988800,12.20998876953125,-0.0360410213470459,-0.001221729558892548,0.1185077652335167
1766385761555951400,12.226951416015625,-0.047036588191986084,-0.006719512399286032,-0.003665188793092966
1766385761572913700,12.24391357421875,-0.06414080411195755,-0.006719512399286032,-0.12644900381565094
1766385761589876200,12.260876220703125,-0.07452550530433655,-0.01282816007733345,-0.02871064469218254
1766385761606838800,12.2778388671875,-0.08429934084415436,-0.02626718580722809,0.04214967042207718
1766385761623801300,12.29480126953125,-0.09101885557174683,-0.01954767294228077,0.031154103577136993
1766385761640764000,12.311763916015625,-0.09651663154363632,-0.01649334840476513,0.013439024798572063
1766385761657726500,12.3287265625,-0.1081230640411377,-0.009773836471140385,0.043371398001909256
1766385761674688800,12.345688720703125,-0.12644900381565094,-0.007330377586185932,0.13683371245861053
1766385761691651300,12.3626513671875,-0.14660754799842834,0.004886918235570192,0.20463970303535461
1766385761708614000,12.37961376953125,-0.18631376326084137,0.03481929376721382,0.27488914132118225
1766385761725576400,12.396576416015625,-0.14721840620040894,0.028099779039621353,0.2608392536640167
1766385761742539000,12.4135390625,-0.12217295914888382,0.04276053607463837,0.235793799161911
1766385761759501600,12.43050146484375,-0.11606431007385254,0.05742128938436508,0.37690356373786926
1766385761776464000,12.4474638671875,-0.10140355676412582,0.05070177838206291,0.44470956921577454
1766385761793426400,12.464426513671874,-0.050090912729501724,0.006719512399286032,0.33536475896835327
1766385761810389000,12.481388916015625,-0.08491020649671555,-0.03909534588456154,0.29016077518463135
1766385761827351600,12.4983515625,-0.0665842592716217,-0.01649334840476513,0.1331685185432434
1766385761844314000,12.515314208984375,-0.047036588191986084,0.013439024798572063,-0.027488915249705315
1766385761861276700,12.532276611328125,-0.03787361457943916,0.01282816007733345,-0.12400554865598679
1766385761878239000,12.549239013671874,0.004886918235570192,0.0360410213470459,-0.18387030065059662
1766385761895201500,12.566201416015625,0.05497783049941063,0.01954767294228077,-0.14660754799842834
1766385761912164000,12.5831640625,0.07391463965177536,0.023212861269712448,-0.11911863088607788
1766385761929126700,12.600126708984375,0.0824667438864708,0.020769402384757996,-0.05436696484684944
1766385761946089200,12.617089111328125,0.08002328872680664,0.0256563201546669,-0.04520399495959282
1766385761963051800,12.6340517578125,0.0665842592716217,0.025045456364750862,0.0360410213470459
1766385761980014300,12.651014404296875,0.05742128938436508,0.02871064469218254,0.1178968995809555
1766385761996976600,12.6679765625,0.053756099194288254,0.013439024798572063,0.14599667489528656
1766385762013939200,12.684939208984375,0.043982263654470444,-0.008552107028663158,0.1380554437637329
1766385762030901800,12.70190185546875,0.0409279391169548,-0.03543015569448471,0.13744457066059113
1766385762047864300,12.7188642578125,0.020158538594841957,0.01954767294228077,0.06475166976451874
1766385762064827000,12.735826904296875,0.007941242307424545,0.02871064469218254,0.09529490768909454
1766385762081789400,12.75278955078125,-0.002443459117785096,0.04459312930703163,0.1185077652335167
1766385762098751700,12.769751708984375,0.001221729558892548,0.09529490768909454,-0.0409279391169548
1766385762115714300,12.78671435546875,0.014049889519810677,0.21685700118541718,-0.23518294095993042
1766385762132676900,12.8036767578125,0.011606430634856224,0.23518294095993042,-0.22357651591300964
1766385762149639400,12.820639404296875,0.11911863088607788,0.08124501258134842,-0.1441640853881836
1766385762166602000,12.83760205078125,0.15027274191379547,0.0922405794262886,-0.19181154668331146
1766385762183564500,12.854564453125,0.15515965223312378,0.11484257876873016,-0.2565632164478302
1766385762200527000,12.871527099609375,0.050090912729501724,0.11667517572641373,-0.17348559200763702
1766385762217489400,12.888489501953124,-0.10506874322891235,0.04825831577181816,-0.0977383628487587
1766385762234452000,12.905451904296875,-0.14110976457595825,0.06047561392188072,-0.16065743565559387
1766385762251414500,12.92241455078125,-0.08124501258134842,0.07452550530433655,-0.25045454502105713
1766385762268377000,12.939377197265625,-0.04886918142437935,0.03787361457943916,-0.33169957995414734
1766385762285339600,12.956339599609375,-0.10506874322891235,0.05497783049941063,-0.3689623177051544
1766385762302302000,12.973302001953124,-0.1081230640411377,0.03481929376721382,-0.3225366175174713
1766385762319264500,12.990264404296875,-0.05925388261675835,0.07574722915887833,-0.2211330533027649
1766385762336227000,13.00722705078125,-0.0256563201546669,0.050090912729501724,-0.18264856934547424
1766385762353189600,13.024189697265625,-0.10079269111156464,-0.05558869615197182,-0.15760311484336853
1766385762370152200,13.041152099609375,-0.06536252796649933,-0.03543015569448471,-0.13439024984836578
1766385762387114800,13.05811474609375,-0.10995566099882126,0.034208428114652634,-0.04886918142437935
1766385762404077300,13.075077392578125,-0.2730565667152405,0.030543239787220955,0.07757982611656189
1766385762421039600,13.09203955078125,-0.21502439677715302,-0.1026252806186676,0.12767073512077332
1766385762438002200,13.109002197265625,0.031154103577136993,-0.06230820715427399,-0.001221729558892548
1766385762454964700,13.12596484375,0.0922405794262886,-0.03787361457943916,-0.026878049597144127
1766385762471927300,13.14292724609375,0.0873536616563797,0.037262752652168274,0.0409279391169548
1766385762488889900,13.159889892578125,-0.07574722915887833,-0.023823726922273636,0.13439024984836578
1766385762505852200,13.17685205078125,-0.16065743565559387,-0.13194678723812103,0.22418737411499023
1766385762522814700,13.193814697265625,-0.001221729558892548,-0.14782927930355072,0.18814635276794434
1766385762539777300,13.21077734375,0.18325942754745483,-0.13011419773101807,0.15699224174022675
1766385762556739800,13.22773974609375,0.18692462146282196,-0.05925388261675835,0.21930044889450073
1766385762573702400,13.244702392578125,0.0818558782339096,-0.11606431007385254,0.3750709891319275
1766385762590664700,13.261664794921876,0.06352993845939636,-0.18203771114349365,0.4043924808502197
1766385762607627300,13.278627197265624,0.1740964651107788,-0.05864302068948746,0.3029889166355133
1766385762624589800,13.29558984375,0.18387030065059662,0.028099779039621353,0.21685700118541718
1766385762641552400,13.312552490234374,0.08124501258134842,0.023823726922273636,0.2467893660068512
1766385762658515000,13.329514892578125,0.039706211537122726,0.008552107028663158,0.28038692474365234
1766385762675477200,13.346477294921876,0.05803215503692627,-0.0409279391169548,0.21441353857517242
1766385762692439800,13.363439697265624,0.13072505593299866,-0.023212861269712448,0.0922405794262886
1766385762709402400,13.38040234375,0.1533270627260208,-0.03237583488225937,0.043371398001909256
1766385762726365000,13.397364990234376,0.06414080411195755,0.002443459117785096,0.06536252796649933
1766385762743327200,13.4143271484375,-0.001832594396546483,0.004886918235570192,0.2162461280822754
1766385762760289800,13.431289794921875,0.0513126403093338,0.015271619893610477,0.19425499439239502
1766385762777252400,13.44825244140625,0.059864748269319534,-0.028099779039621353,0.0616973415017128
1766385762794215000,13.46521484375,0.028099779039621353,-0.028099779039621353,0.006108647678047419
1766385762811177500,13.482177490234376,0.039706211537122726,0.04886918142437935,-0.009773836471140385
1766385762828139800,13.499139892578125,0.011606430634856224,0.011606430634856224,-0.07330377399921417
1766385762845102300,13.516102294921875,0.011606430634856224,-0.027488915249705315,-0.16676609218120575
1766385762862065000,13.53306494140625,0.007941242307424545,-0.046425722539424896,-0.22785256803035736
1766385762879027500,13.55002734375,0.02626718580722809,-0.03237583488225937,-0.15515965223312378
1766385762895989800,13.56698974609375,0.01282816007733345,-0.021380268037319183,-0.0824667438864708
1766385762912952300,13.583952392578125,-0.006108647678047419,-0.01954767294228077,-0.07024945318698883
1766385762929915000,13.600914794921875,-0.031154103577136993,-0.05253437161445618,-0.06597339361906052
1766385762946877400,13.61787744140625,-0.11911863088607788,-0.0922405794262886,-0.10995566099882126
1766385762963839700,13.63483984375,-0.30115634202957153,-0.17531819641590118,-0.04825831577181816
1766385762980802300,13.65180224609375,-0.039706211537122726,-0.0513126403093338,0.04459312930703163
1766385762997764900,13.668764892578125,0.001832594396546483,-0.07513637095689774,0.09957095980644226
1766385763023208700,13.694208740234375,-0.16798780858516693,-0.14477495849132538,0.026878049597144127
1766385763040171000,13.7111708984375,-0.1588248461484909,-0.1484401375055313,-0.05864302068948746
1766385763057133600,13.728133544921874,-0.1337793916463852,-0.12522727251052856,-0.11423171311616898
1766385763074096000,13.74509619140625,-0.1484401375055313,-0.12461641430854797,-0.14172062277793884
1766385763091058700,13.76205859375,-0.13622283935546875,-0.10567960888147354,-0.1386663019657135
1766385763108021000,13.77902099609375,-0.02260199747979641,-0.06597339361906052,-0.05253437161445618
1766385763124983600,13.795983642578125,0.09590577334165573,-0.020158538594841957,0.01954767294228077
1766385763141946000,13.812946044921874,-0.08063415437936783,0.014660755172371864,-0.19364413619041443
1766385763158908700,13.82990869140625,-0.06291907280683517,0.006719512399286032,-0.09468404203653336
1766385763175871200,13.846871337890626,-0.023212861269712448,0.020158538594841957,0.04459312930703163
1766385763192833500,13.86383349609375,-0.000610864779446274,0.009773836471140385,-0.059864748269319534
1766385763209796000,13.880796142578125,-0.003665188793092966,0.004886918235570192,-0.039706211537122726
1766385763226759400,13.897759521484375,-0.01649334840476513,0.002443459117785096,0.006719512399286032
1766385763243721000,13.914720947265625,-0.031154103577136993,-0.007941242307424545,-0.027488915249705315
1766385763260683500,13.93168359375,-0.03909534588456154,-0.006108647678047419,-0.014660755172371864
1766385763277646000,13.94864599609375,-0.037262752652168274,-0.01282816007733345,-0.02932151034474373
1766385763294608600,13.965608642578125,-0.040317077189683914,-0.014049889519810677,-0.029932374134659767
1766385763311571200,13.9825712890625,-0.04153880476951599,-0.014049889519810677,-0.015271619893610477
1766385763328533500,13.999533447265625,-0.04153880476951599,-0.014049889519810677,-0.01282816007733345
1766385763345496000,14.01649609375,-0.043371398001909256,-0.014660755172371864,-0.010384701192378998
1766385763362458600,14.033458740234375,-0.047036588191986084,-0.013439024798572063,-0.014049889519810677
1766385763379421200,14.050421142578125,-0.05192350596189499,-0.010384701192378998,-0.025045456364750862
1766385763396383500,14.067383544921874,-0.05497783049941063,-0.014049889519810677,-0.013439024798572063
1766385763413346000,14.084345947265625,-0.05192350596189499,-0.018325943499803543,-0.0256563201546669
1766385763430308600,14.10130859375,-0.0409279391169548,-0.010995565913617611,-0.01954767294228077
1766385763447271200,14.118271240234375,-0.030543239787220955,-0.000610864779446274,-0.017715077847242355
1766385763464233500,14.1352333984375,-0.010995565913617611,-0.006108647678047419,-0.017104214057326317
1766385763481196000,14.152196044921874,0.0030543238390237093,0.001221729558892548,-0.001832594396546483
1766385763498158600,14.16915869140625,0.006719512399286032,-0.001221729558892548,0.006108647678047419
1766385763515121200,14.18612109375,-0.031154103577136993,0.000610864779446274,0.011606430634856224
1766385763532083500,14.20308349609375,0.006719512399286032,0.008552107028663158,0.007330377586185932
1766385763549046000,14.2200458984375,0.03848448023200035,0.010384701192378998,-0.028099779039621353
1766385763566008600,14.237008544921874,0.056810423731803894,0.017104214057326317,-0.014049889519810677
1766385763582971000,14.253970947265625,0.06841685622930527,0.020769402384757996,-0.011606430634856224
1766385763599933400,14.270933349609376,0.07330377399921417,0.0360410213470459,0.004276053514331579
1766385763616896000,14.28789599609375,0.07330377399921417,0.04214967042207718,0.007330377586185932
1766385763633858600,14.304858642578125,0.07452550530433655,0.03237583488225937,0.003665188793092966
1766385763650820900,14.32182080078125,0.07574722915887833,0.020158538594841957,0.006108647678047419
1766385763667783400,14.338783447265625,0.07147117704153061,0.021991131827235222,-0.001832594396546483
1766385763684746000,14.35574609375,0.06963858753442764,0.02626718580722809,0.021380268037319183
1766385763701708500,14.37270849609375,0.06963858753442764,0.05070177838206291,-0.009162971749901772
1766385763718670800,14.3896708984375,0.08368847519159317,0.030543239787220955,-0.04214967042207718
1766385763735633400,14.40663330078125,0.08307760953903198,0.018325943499803543,-0.010995565913617611
1766385763752596000,14.423595947265625,0.06475166976451874,0.023212861269712448,-0.028099779039621353
1766385763769558300,14.440558349609375,0.05253437161445618,0.023823726922273636,-0.028099779039621353
1766385763786520800,14.457520751953124,0.053756099194288254,0.030543239787220955,0
1766385763803483400,14.4744833984375,0.06047561392188072,0.015271619893610477,0.010995565913617611
1766385763820446000,14.491446044921876,0.059864748269319534,0.014660755172371864,0.036651886999607086
1766385763837408300,14.508408203125,0.05742128938436508,0.018325943499803543,0.009162971749901772
1766385763854370800,14.525370849609375,0.05253437161445618,0.02626718580722809,0.007330377586185932
1766385763871333400,14.54233349609375,0.04276053607463837,0.033597562462091446,-0.003665188793092966
1766385763888295700,14.559295654296875,0.03543015569448471,0.015271619893610477,-0.010995565913617611
1766385763905258500,14.576258544921876,0.037262752652168274,0.001221729558892548,-0.020158538594841957
1766385763922220800,14.593220703125,0.039706211537122726,-0.01282816007733345,0.03298669680953026
1766385763939183400,14.610183349609375,0.001832594396546483,0,-0.007330377586185932
1766385763956145700,14.627145751953124,-0.023212861269712448,-0.007330377586185932,0.006108647678047419
1766385763973108200,14.644108154296875,-0.03543015569448471,-0.006108647678047419,-0.01588248461484909
1766385763990070800,14.66107080078125,-0.039706211537122726,0.006719512399286032,-0.013439024798572063
1766385764007033000,14.678033203125,-0.04581485688686371,-0.0030543238390237093,0.010995565913617611
1766385764023995600,14.69499560546875,-0.05070177838206291,-0.027488915249705315,0.09712749719619751
1766385764040958200,14.711958251953124,-0.021991131827235222,-0.047036588191986084,0.07513637095689774
1766385764057920800,14.728920654296875,0.1496618688106537,-0.07147117704153061,-0.018325943499803543
1766385764074883000,14.745883056640626,0.2706131041049957,-0.07391463965177536,-0.10873392969369888
1766385764091845600,14.762845703125,-0.09590577334165573,-0.008552107028663158,-0.17837251722812653
1766385764108808000,14.779807861328125,-0.1337793916463852,-0.013439024798572063,-0.10690133273601532
1766385764125770500,14.7967705078125,-0.16554436087608337,-0.07635809481143951,0.11362084746360779
1766385764142733000,14.813733154296875,-0.20708316564559937,-0.07941242307424545,0.1130099818110466
1766385764159695600,14.830695556640626,-0.2156352698802948,-0.05803215503692627,-0.000610864779446274
1766385764176658200,14.847658203125,-0.2003636509180069,-0.033597562462091446,-0.05864302068948746
1766385764193620500,14.864620361328125,-0.17592905461788177,-0.039706211537122726,-0.053145237267017365
1766385764210583000,14.8815830078125,-0.2162461280822754,-0.0409279391169548,-0.006108647678047419
1766385764227545300,14.89854541015625,-0.2614501118659973,-0.06414080411195755,-0.014660755172371864
1766385764244508000,14.9155078125,-0.2974911332130432,-0.08307760953903198,-0.001221729558892548
1766385764261470500,14.932470458984374,-0.33108872175216675,-0.09346231073141098,-0.014049889519810677
1766385764278432800,14.949432861328125,-0.35674503445625305,-0.08491020649671555,-0.03237583488225937
1766385764295395300,14.966395263671876,-0.370184063911438,-0.07024945318698883,-0.023212861269712448
1766385764312358000,14.98335791015625,-0.36651885509490967,-0.07086031138896942,0.006108647678047419
1766385764329320400,15.000320556640625,-0.36651885509490967,-0.09407317638397217,-0.001832594396546483
1766385764346282800,15.01728271484375,-0.38179048895835876,-0.12217295914888382,0.007941242307424545
1766385764363245300,15.034245361328125,-0.40927940607070923,-0.1484401375055313,0.03176496922969818
1766385764380207900,15.051207763671876,-0.4459312856197357,-0.16187916696071625,-0.001221729558892548
1766385764397170200,15.068170166015625,-0.4783071279525757,-0.15821397304534912,0.003665188793092966
1766385764414132700,15.0851328125,-0.5057960152626038,-0.143553227186203,-0.05497783049941063
1766385764431095000,15.102094970703124,-0.5332849621772766,-0.13194678723812103,-0.04581485688686371
1766385764448057600,15.1190576171875,-0.5540543794631958,-0.14172062277793884,-0.024434590712189674
1766385764465020200,15.136020263671876,-0.5583304166793823,-0.1692095398902893,0.026878049597144127
1766385764481982500,15.152982421875,-0.5711585879325867,-0.18692462146282196,0.007330377586185932
1766385764498945000,15.169945068359375,-0.5937605500221252,-0.1948658674955368,0.006108647678047419
1766385764515907600,15.186907470703124,-0.6114756464958191,-0.20708316564559937,-0.006719512399286032
1766385764532870100,15.2038701171875,-0.6444623470306396,-0.19669845700263977,-0.010995565913617611
1766385764549832400,15.22083251953125,-0.6896663308143616,-0.19181154668331146,-0.025045456364750862
1766385764566795000,15.237794921875,-0.7275399565696716,-0.2003636509180069,-0.04825831577181816
1766385764583757300,15.25475732421875,-0.7171552777290344,-0.20463970303535461,0.05742128938436508
1766385764600720000,15.271719970703124,-0.7031053900718689,-0.24862197041511536,0.007941242307424545
1766385764617682400,15.288682373046875,-0.7318159937858582,-0.24984370172023773,0.06414080411195755
1766385764634644700,15.305644775390626,-0.7727439403533936,-0.2510654330253601,-0.012217295356094837
1766385764651607300,15.322607177734374,-0.8026763200759888,-0.25350889563560486,-0.003665188793092966
1766385764668569600,15.339569580078125,-0.8289434909820557,-0.2571740746498108,-0.0409279391169548
1766385764685532200,15.3565322265625,-0.8484911918640137,-0.2614501118659973,-0.03848448023200035
1766385764702494700,15.37349462890625,-0.8723149299621582,-0.277332603931427,-0.03481929376721382
1766385764719457300,15.390457275390625,-0.8985821008682251,-0.2834412455558777,-0.014049889519810677
1766385764736419600,15.407419677734374,-0.9181297421455383,-0.2211330533027649,-0.1288924664258957
1766385764753382100,15.424382080078125,-0.9217949509620667,-0.23396120965480804,0.2254091054201126
1766385764770344700,15.4413447265625,-0.9083559513092041,-0.28588470816612244,-0.09957095980644226
1766385764787307000,15.45830712890625,-0.934012234210968,-0.24495677649974823,0.10445787757635117
1766385764804269600,15.47526953125,-0.9419534802436829,-0.287106454372406,-0.009773836471140385
1766385764821231900,15.49223193359375,-0.9608902931213379,-0.27916520833969116,-0.004886918235570192
1766385764838194400,15.5091943359375,-0.9718858599662781,-0.29993459582328796,0.006108647678047419
1766385764855157000,15.526156982421876,-0.9749401807785034,-0.3084867000579834,-0.037262752652168274
1766385764872119300,15.543119384765625,-0.9639446139335632,-0.287106454372406,-0.004276053514331579
1766385764889081900,15.560081787109375,-0.9352339506149292,-0.277332603931427,0.013439024798572063
1766385764906044400,15.57704443359375,-0.9120211005210876,-0.2626718580722809,-0.04764745384454727
1766385764923006700,15.5940068359375,-0.8881973624229431,-0.22479823231697083,-0.10995566099882126
1766385764939969300,15.61096923828125,-0.8087849617004395,-0.2009745091199875,0.056810423731803894
1766385764956931600,15.627931640625,-0.7312051653862,-0.24740023910999298,-0.12034036219120026
1766385764973894100,15.64489404296875,-0.7141009569168091,-0.17165300250053406,0.12705987691879272
1766385764990856700,15.661856689453124,-0.6902772188186646,-0.19425499439239502,-0.047036588191986084
1766385765007819000,15.678819091796875,-0.6805033683776855,-0.16249002516269684,0.05864302068948746
1766385765024781600,15.695781494140626,-0.665842592716217,-0.15821397304534912,-0.010384701192378998
1766385765041744000,15.712743896484374,-0.6530144214630127,-0.15027274191379547,0.006108647678047419
1766385765058706400,15.72970654296875,-0.6328558921813965,-0.14660754799842834,0.01588248461484909
1766385765075669000,15.7466689453125,-0.6120865345001221,-0.1496618688106537,0.007941242307424545
1766385765092631300,15.76363134765625,-0.5888736248016357,-0.15271618962287903,-0.001221729558892548
1766385765109593900,15.78059375,-0.5607738494873047,-0.14599667489528656,0.003665188793092966
1766385765126556200,15.79755615234375,-0.5174024701118469,-0.14233149588108063,-0.000610864779446274
1766385765143518700,15.814518798828125,-0.46914416551589966,-0.13927717506885529,-0.006719512399286032
1766385765160481300,15.831481201171876,-0.4172206521034241,-0.12400554865598679,-0.012217295356094837
1766385765177443600,15.848443603515625,-0.36712974309921265,-0.11117739230394363,-0.014049889519810677
1766385765194406100,15.86540625,-0.318871408700943,-0.09590577334165573,-0.011606430634856224
1766385765211368400,15.882368408203124,-0.2767217457294464,-0.09590577334165573,-0.01954767294228077
1766385765228331000,15.8993310546875,-0.24251331388950348,-0.043982263654470444,-0.03787361457943916
1766385765245293600,15.91629345703125,-0.2003636509180069,-0.023823726922273636,0.01954767294228077
1766385765262255900,15.933255859375,-0.1649334877729416,-0.03787361457943916,0.001221729558892548
1766385765279218400,15.950218505859375,-0.15088360011577606,-0.020769402384757996,-0.0054977829568088055
1766385765296180700,15.9671806640625,-0.1282816082239151,-0.024434590712189674,0.009162971749901772
1766385765313143300,15.984143310546875,-0.10934479534626007,-0.014049889519810677,-0.017715077847242355
1766385765330105600,16.001105712890624,-0.05925388261675835,-0.001221729558892548,0.021380268037319183
1766385765347068200,16.018068115234374,0.0054977829568088055,0.014049889519810677,0.010384701192378998
1766385765364030700,16.03503076171875,0.05436696484684944,0.02932151034474373,0.010995565913617611
1766385765380993000,16.051992919921876,0.03176496922969818,0.025045456364750862,0.03481929376721382
1766385765397955600,16.06895556640625,-0.007330377586185932,0.010384701192378998,0.03848448023200035
1766385765414918000,16.08591796875,-0.05803215503692627,0.001832594396546483,0.020769402384757996
1766385765431880400,16.10288037109375,-0.0616973415017128,-0.008552107028663158,0.034208428114652634
1766385765448842800,16.1198427734375,-0.06597339361906052,-0.004886918235570192,0.023823726922273636
1766385765465805300,16.136805419921874,-0.08674279600381851,-0.004886918235570192,0.010384701192378998
1766385765482768000,16.153767822265625,-0.10873392969369888,-0.025045456364750862,-0.001832594396546483
1766385765499730200,16.170730224609375,-0.12034036219120026,-0.03298669680953026,0.010995565913617611
1766385765516692700,16.187692626953126,-0.12644900381565094,-0.039706211537122726,0.012217295356094837
1766385765533655000,16.204655029296877,-0.12400554865598679,-0.026878049597144127,0.024434590712189674
1766385765550617600,16.22161767578125,-0.11117739230394363,-0.026878049597144127,0.02260199747979641
1766385765567580200,16.238580078125,-0.09834922850131989,-0.01893680728971958,0.020769402384757996
1766385765584542500,16.25554248046875,-0.08674279600381851,-0.015271619893610477,0.037262752652168274
1766385765601505000,16.272505126953124,-0.09101885557174683,-0.02260199747979641,0.01588248461484909
1766385765618467300,16.28946728515625,-0.10201441496610641,-0.03176496922969818,0.02932151034474373
1766385765635429600,16.3064296875,-0.11667517572641373,-0.049480047076940536,0.026878049597144127
1766385765652392200,16.32339208984375,-0.1380554437637329,-0.053756099194288254,-0.013439024798572063
1766385765669354800,16.340354736328123,-0.16615521907806396,-0.05558869615197182,0.02260199747979641
1766385765686317000,16.357317138671874,-0.19181154668331146,-0.06780599057674408,-0.003665188793092966
1766385765703279600,16.374279541015625,-0.21685700118541718,-0.07819069176912308,0.012217295356094837
1766385765720242000,16.391241943359375,-0.235793799161911,-0.09285144507884979,-0.002443459117785096
1766385765737204500,16.40820458984375,-0.2565632164478302,-0.09957095980644226,0.006108647678047419
1766385765754167000,16.4251669921875,-0.26450446248054504,-0.10079269111156464,-0.0030543238390237093
1766385765771129300,16.44212939453125,-0.26878049969673157,-0.08857539296150208,-0.013439024798572063
1766385765788092000,16.459091796875,-0.2626718580722809,-0.07391463965177536,-0.009162971749901772
1766385765805054200,16.47605419921875,-0.2510654330253601,-0.06780599057674408,0.026878049597144127
1766385765822016500,16.4930166015625,-0.23762640357017517,-0.07147117704153061,0.043982263654470444
1766385765838979000,16.50997900390625,-0.24434591829776764,-0.06291907280683517,0.07391463965177536
1766385765855941400,16.52694140625,-0.23762640357017517,-0.09040798991918564,0.12644900381565094
1766385765872904000,16.543904052734376,-0.24984370172023773,-0.10079269111156464,0.10140355676412582
1766385765889866500,16.560866455078123,-0.2675587832927704,-0.10934479534626007,0.0818558782339096
1766385765906828800,16.577828857421874,-0.2883281707763672,-0.043982263654470444,0.04276053607463837
1766385765923791400,16.594791259765625,-0.2828303873538971,-0.10140355676412582,0.11117739230394363
1766385765940753700,16.611753662109376,-0.28954991698265076,-0.1233946830034256,0.08674279600381851
1766385765957716200,16.62871630859375,-0.30543237924575806,-0.13683371245861053,0.12767073512077332
1766385765974678500,16.645678466796873,-0.3084867000579834,-0.16859868168830872,0.09407317638397217
1766385765991641000,16.66264111328125,-0.3127627670764923,-0.15760311484336853,0.10079269111156464
1766385766008603400,16.679603271484375,-0.3017672002315521,-0.17165300250053406,0.0769689604640007
1766385766025566000,16.69656591796875,-0.29626941680908203,-0.14721840620040894,0.03298669680953026
1766385766042528300,16.7135283203125,-0.2889390289783478,-0.12034036219120026,-0.007330377586185932
1766385766059490800,16.73049072265625,-0.27488914132118225,-0.08796452730894089,-0.06291907280683517
1766385766076453000,16.747453125,-0.24740023910999298,-0.06780599057674408,-0.059864748269319534
1766385766093415700,16.764415771484376,-0.21991132199764252,-0.04581485688686371,-0.05070177838206291
1766385766110378000,16.7813779296875,-0.19364413619041443,-0.06536252796649933,-0.01893680728971958
1766385766127340500,16.798340576171874,-0.17226386070251465,-0.07086031138896942,0.015271619893610477
1766385766144302800,16.815302734375,-0.16126830875873566,-0.07819069176912308,0.037262752652168274
1766385766161265400,16.832265380859376,-0.1649334877729416,-0.0665842592716217,0.010384701192378998
1766385766178227700,16.849227783203126,-0.1637117564678192,-0.028099779039621353,-0.037262752652168274
1766385766195190300,16.866190185546873,-0.1386663019657135,0,-0.059864748269319534
1766385766212152600,16.883152587890624,-0.11117739230394363,0.01282816007733345,-0.07757982611656189
1766385766229115100,16.900115234375,-0.1026252806186676,0.0409279391169548,-0.11117739230394363
1766385766246077400,16.917077392578125,-0.07819069176912308,0.03176496922969818,-0.20341797173023224
1766385766263040000,16.9340400390625,-0.0769689604640007,0.05864302068948746,-0.15821397304534912
1766385766280002300,16.951002197265623,-0.08429934084415436,0.06963858753442764,-0.29138249158859253
1766385766296964900,16.96796484375,-0.07941242307424545,0.1545487940311432,-0.22357651591300964
1766385766313927200,16.98492724609375,-0.04520399495959282,0.05497783049941063,-0.010384701192378998
1766385766330889700,17.0018896484375,-0.056810423731803894,0.043371398001909256,-0.07024945318698883
1766385766347852000,17.01885205078125,-0.08979712426662445,-0.0409279391169548,0.0054977829568088055
1766385766364814600,17.035814697265625,-0.11423171311616898,-0.009162971749901772,0.1288924664258957
1766385766381777000,17.05277685546875,-0.11117739230394363,-0.026878049597144127,-0.08918625861406326
1766385766398739500,17.069739501953126,-0.11239911615848541,-0.009162971749901772,0.003665188793092966
1766385766415701800,17.08670166015625,-0.10201441496610641,-0.010995565913617611,-0.07391463965177536
1766385766432664300,17.103664306640624,-0.10079269111156464,0.014049889519810677,-0.08674279600381851
1766385766449626600,17.120626708984375,-0.08552107214927673,0.010995565913617611,-0.07391463965177536
1766385766466589200,17.137589111328126,-0.049480047076940536,0.023212861269712448,0.04459312930703163
1766385766483551500,17.154551513671876,-0.0256563201546669,0.006719512399286032,-0.04581485688686371
1766385766500513800,17.171513671875,-0.03237583488225937,-0.006108647678047419,0.18142683804035187
1766385766517476400,17.188476318359374,-0.013439024798572063,-0.026878049597144127,0.01588248461484909
1766385766534439000,17.20543896484375,-0.003665188793092966,0.001221729558892548,0.0054977829568088055
1766385766551401200,17.222401123046875,0.007330377586185932,0.031154103577136993,0.013439024798572063
1766385766568363500,17.239363525390626,0.02871064469218254,0.04153880476951599,-0.05925388261675835
1766385766585326000,17.256326171875,0.04153880476951599,0.04520399495959282,-0.010995565913617611
1766385766602288400,17.273288330078124,0.03543015569448471,0.030543239787220955,0.001832594396546483
1766385766619251000,17.2902509765625,0.02871064469218254,0.007941242307424545,0.013439024798572063
1766385766636213200,17.307213134765625,0.021380268037319183,0,0.028099779039621353
1766385766653175800,17.32417578125,0.02871064469218254,-0.02260199747979641,-0.02932151034474373
1766385766670138000,17.34113818359375,0.04886918142437935,0.039706211537122726,-0.03237583488225937
1766385766687100700,17.3581005859375,0.047036588191986084,0.08429934084415436,0.023823726922273636
1766385766704063000,17.37506298828125,0.05192350596189499,0.020769402384757996,0.09712749719619751
1766385766721025500,17.392025634765623,0.043371398001909256,0.026878049597144127,-0.006719512399286032
1766385766737987800,17.40898779296875,0.047036588191986084,0.012217295356094837,0.07330377399921417
1766385766754950100,17.4259501953125,0.05070177838206291,0.012217295356094837,-0.021380268037319183
1766385766771912700,17.44291259765625,0.05070177838206291,0.026878049597144127,-0.020769402384757996
1766385766788875300,17.459875244140626,0.056810423731803894,0.01588248461484909,-0.07086031138896942
1766385766805837600,17.476837646484373,0.05742128938436508,0.004886918235570192,-0.023823726922273636
1766385766822800000,17.4937998046875,0.05192350596189499,-0.000610864779446274,-0.031154103577136993
1766385766839762400,17.510762451171875,0.04214967042207718,0.003665188793092966,0.009773836471140385
1766385766856724700,17.527724853515625,0.04520399495959282,-0.002443459117785096,-0.004276053514331579
1766385766873687300,17.544687255859376,0.04825831577181816,0.009162971749901772,-0.0030543238390237093
1766385766890649600,17.561649658203127,0.053145237267017365,0.018325943499803543,-0.04276053607463837
1766385766907612000,17.57861181640625,0.037262752652168274,0.018325943499803543,-0.04459312930703163
1766385766924574500,17.595574462890625,-0.000610864779446274,0.01649334840476513,-0.01893680728971958
1766385766941536800,17.612536865234375,-0.028099779039621353,0.01588248461484909,-0.013439024798572063
1766385766958499300,17.629499267578126,-0.027488915249705315,0.0054977829568088055,0.046425722539424896
1766385766975461600,17.646461669921877,-0.001832594396546483,-0.0030543238390237093,0.007941242307424545
1766385766992424200,17.663424072265624,0.0360410213470459,-0.024434590712189674,0.1233946830034256
1766385767009386500,17.680386474609374,0.047036588191986084,-0.01893680728971958,0.040317077189683914
1766385767026348800,17.697348876953125,0.03787361457943916,-0.01649334840476513,0.03481929376721382
1766385767043311400,17.714311279296876,0.027488915249705315,-0.023212861269712448,-0.01588248461484909
1766385767060273700,17.731273681640626,0.023212861269712448,-0.001832594396546483,-0.01282816007733345
1766385767077236200,17.748236328125,0.02260199747979641,-0.001832594396546483,-0.03787361457943916
1766385767094198500,17.765198486328124,0.014660755172371864,-0.002443459117785096,0.000610864779446274
1766385767111161000,17.7821611328125,0.004886918235570192,-0.006108647678047419,-0.015271619893610477
1766385767128123400,17.799123291015626,0.001221729558892548,-0.009162971749901772,0.004276053514331579
1766385767145086000,17.8160859375,-0.000610864779446274,-0.013439024798572063,0.012217295356094837
1766385767162048300,17.83304833984375,0.001832594396546483,-0.012217295356094837,0.021380268037319183
1766385767179010600,17.850010498046874,0.010384701192378998,-0.004886918235570192,0.011606430634856224
1766385767195973000,17.86697314453125,0.020158538594841957,0.001221729558892548,0.009773836471140385
1766385767212935400,17.883935302734375,0.021991131827235222,0.010384701192378998,-0.000610864779446274
1766385767229897700,17.900897705078126,0.017104214057326317,0.01588248461484909,0.001832594396546483
1766385767246860300,17.9178603515625,0.01954767294228077,0.01649334840476513,0.003665188793092966
1766385767263822800,17.93482275390625,0.0256563201546669,0.011606430634856224,0.009773836471140385
1766385767280785200,17.95178515625,0.028099779039621353,0.01588248461484909,0.009162971749901772
1766385767297747500,17.96874755859375,0.01954767294228077,0.011606430634856224,0.012217295356094837
1766385767314710000,17.9857099609375,0.003665188793092966,0.003665188793092966,0.006108647678047419
1766385767331672300,18.00267236328125,-0.006108647678047419,-0.006108647678047419,0.004886918235570192
1766385767348634600,18.019634521484374,-0.014660755172371864,-0.01649334840476513,-0.007941242307424545
1766385767365597200,18.03659716796875,-0.02932151034474373,-0.020158538594841957,-0.010384701192378998
1766385767382559700,18.053559814453124,-0.043371398001909256,-0.030543239787220955,-0.011606430634856224
1766385767399522000,18.07052197265625,-0.05864302068948746,-0.05558869615197182,-0.001221729558892548
1766385767416484400,18.087484375,-0.06902772188186646,-0.06719512492418289,-0.0824667438864708
1766385767433447000,18.104447021484376,-0.10384701192378998,0.008552107028663158,-0.023823726922273636
1766385767450409200,18.1214091796875,-0.09162971377372742,-0.056199558079242706,0.0256563201546669
1766385767467371500,18.13837158203125,-0.09040798991918564,-0.05070177838206291,-0.006719512399286032
1766385767484334000,18.155333984375,-0.0873536616563797,-0.050090912729501724,0.037262752652168274
1766385767501296400,18.17229638671875,-0.09040798991918564,-0.05436696484684944,-0.013439024798572063
1766385767518259000,18.189259033203125,-0.09101885557174683,-0.06291907280683517,-0.006108647678047419
1766385767535221200,18.20622119140625,-0.09957095980644226,-0.0616973415017128,-0.046425722539424896
1766385767552183800,18.223183837890623,-0.0977383628487587,-0.05925388261675835,-0.036651886999607086
1766385767569146000,18.24014599609375,-0.09162971377372742,-0.06475166976451874,-0.04886918142437935
1766385767586108400,18.2571083984375,-0.09407317638397217,-0.05070177838206291,-0.0256563201546669
1766385767603071000,18.274071044921875,-0.09407317638397217,-0.04153880476951599,-0.018325943499803543
1766385767620033300,18.291033203125,-0.06780599057674408,-0.03298669680953026,-0.018325943499803543
1766385767636995600,18.30799560546875,-0.04886918142437935,-0.023823726922273636,-0.020158538594841957
1766385767653958100,18.324958251953124,-0.021991131827235222,0.008552107028663158,-0.16187916696071625
1766385767670920400,18.34192041015625,-0.017715077847242355,-0.004276053514331579,-0.23212862014770508
1766385767687883000,18.358883056640625,-0.01954767294228077,-0.001832594396546483,0.08857539296150208
1766385767704845300,18.37584521484375,-0.015271619893610477,-0.040317077189683914,-0.13927717506885529
1766385767721808000,18.392807861328127,-0.05558869615197182,-0.014660755172371864,-0.0054977829568088055
1766385767738770200,18.409770263671874,-0.06780599057674408,-0.02260199747979641,-0.09529490768909454
1766385767755732500,18.426732421875,-0.0720820426940918,-0.020769402384757996,-0.06963858753442764
1766385767772695000,18.443695068359375,-0.09040798991918564,-0.017715077847242355,-0.10140355676412582
1766385767789657300,18.4606572265625,-0.1026252806186676,-0.03543015569448471,-0.08796452730894089
1766385767806619600,18.47761962890625,-0.10873392969369888,-0.0513126403093338,-0.06719512492418289
1766385767823582200,18.494582275390623,-0.11728604137897491,-0.06963858753442764,-0.04886918142437935
1766385767840544500,18.51154443359375,-0.11911863088607788,-0.10323614627122879,-0.013439024798572063
1766385767857506800,18.5285068359375,-0.11056652665138245,-0.08918625861406326,-0.15210533142089844
1766385767874469400,18.545469482421876,-0.11606431007385254,0.014660755172371864,-0.05558869615197182
1766385767891432000,18.562431884765626,-0.06414080411195755,-0.026878049597144127,-0.026878049597144127
1766385767908394000,18.57939404296875,-0.03481929376721382,-0.006719512399286032,-0.13439024984836578
1766385767925356500,18.5963564453125,-0.013439024798572063,0.013439024798572063,0.006108647678047419
1766385767942319000,18.613319091796875,0.007330377586185932,0.010995565913617611,-0.08307760953903198
1766385767959281400,18.630281494140625,0.011606430634856224,0.012217295356094837,-0.01282816007733345
1766385767976243700,18.64724365234375,0.0030543238390237093,0.010384701192378998,-0.04214967042207718
1766385767993206300,18.664206298828127,-0.008552107028663158,0.010384701192378998,-0.03848448023200035
1766385768010168600,18.68116845703125,-0.01954767294228077,0.002443459117785096,-0.01588248461484909
1766385768027131000,18.698130859375,-0.02932151034474373,-0.004276053514331579,-0.01588248461484909
1766385768044093400,18.715093505859375,-0.039706211537122726,-0.023212861269712448,-0.01282816007733345
1766385768061055700,18.7320556640625,-0.04825831577181816,-0.037262752652168274,-0.009162971749901772
1766385768078018000,18.74901806640625,-0.05253437161445618,-0.04153880476951599,0.023823726922273636
1766385768094980600,18.765980712890624,-0.053756099194288254,-0.04825831577181816,-0.006108647678047419
1766385768111943000,18.78294287109375,-0.05192350596189499,-0.05070177838206291,-0.03848448023200035
1766385768128905500,18.799905517578125,-0.04825831577181816,-0.03298669680953026,-0.021380268037319183
1766385768145867800,18.81686767578125,-0.03543015569448471,-0.031154103577136993,-0.043982263654470444
1766385768162830000,18.833830078125,-0.026878049597144127,-0.021991131827235222,-0.012217295356094837
1766385768179792600,18.850792724609374,-0.017104214057326317,-0.018325943499803543,0.0030543238390237093
1766385768196755000,18.8677548828125,-0.011606430634856224,-0.010995565913617611,0.020158538594841957
1766385768213717200,18.88471728515625,-0.013439024798572063,-0.017715077847242355,0.023212861269712448
1766385768230679800,18.9016796875,-0.021380268037319183,-0.014660755172371864,0.037262752652168274
1766385768247642000,18.91864208984375,-0.017715077847242355,-0.009773836471140385,0.017715077847242355
1766385768264604400,18.9356044921875,-0.009773836471140385,-0.014049889519810677,-0.004886918235570192
1766385768281567000,18.95256689453125,-0.006108647678047419,-0.006108647678047419,-0.01649334840476513
1766385768298529300,18.969529296875,0.001832594396546483,-0.02626718580722809,-0.031154103577136993
1766385768315491600,18.98649169921875,-0.001832594396546483,0,-0.08796452730894089
1766385768332454100,19.0034541015625,0.006108647678047419,0.033597562462091446,-0.04276053607463837
1766385768349416400,19.02041650390625,-0.006719512399286032,0.043982263654470444,-0.007941242307424545
1766385768366379000,19.03737890625,0.021380268037319183,0.04520399495959282,0.0054977829568088055
1766385768383341300,19.05434130859375,0.04764745384454727,0.08124501258134842,0.029932374134659767
1766385768400303600,19.0713037109375,0.09162971377372742,0.01893680728971958,0.02260199747979641
1766385768417266200,19.08826611328125,0.06414080411195755,0.028099779039621353,0.25045454502105713
1766385768434228500,19.105228515625,0.04520399495959282,-0.004886918235570192,-0.025045456364750862
1766385768451190800,19.122190673828126,0.02871064469218254,0.014660755172371864,0.16859868168830872
1766385768468153300,19.1391533203125,0.03909534588456154,-0.007941242307424545,0.006719512399286032
1766385768485115600,19.15611572265625,0.0360410213470459,0.017715077847242355,0.02626718580722809
1766385768502078000,19.173077880859374,0.04459312930703163,0.012217295356094837,-0.01893680728971958
1766385768519040300,19.190040283203125,0.04153880476951599,0.018325943499803543,0.007330377586185932
1766385768536002800,19.2070029296875,0.04581485688686371,0.007330377586185932,0.006719512399286032
1766385768552965000,19.223965087890626,0.04276053607463837,0.001832594396546483,0.03543015569448471
1766385768569927400,19.240927490234377,0.03848448023200035,-0.001221729558892548,0.017715077847242355
1766385768586890000,19.257889892578124,0.02932151034474373,-0.0030543238390237093,0.030543239787220955
1766385768603852300,19.274852294921875,0.026878049597144127,0.002443459117785096,0.0054977829568088055
1766385768620814800,19.29181494140625,0.024434590712189674,0.009162971749901772,0.007941242307424545
1766385768637777200,19.308777099609376,0.015271619893610477,0.008552107028663158,0.000610864779446274
1766385768654739500,19.325739501953127,0.0054977829568088055,0.007941242307424545,0.014660755172371864
1766385768671702000,19.342701904296874,0.000610864779446274,0.003665188793092966,0.02260199747979641
1766385768688664300,19.359664306640624,-0.004886918235570192,0.001221729558892548,0.03909534588456154
1766385768705626600,19.376626708984375,-0.006108647678047419,-0.003665188793092966,0.046425722539424896
1766385768722589000,19.3935888671875,-0.007330377586185932,-0.001832594396546483,0.04581485688686371
1766385768739551500,19.410551513671876,-0.008552107028663158,0.001221729558892548,0.04581485688686371
1766385768756513800,19.427513671875,-0.013439024798572063,-0.003665188793092966,0.011606430634856224
1766385768773476000,19.44447607421875,-0.03176496922969818,0.0054977829568088055,0.06597339361906052
1766385768790438700,19.461438720703125,-0.03848448023200035,0.010384701192378998,0.02260199747979641
1766385768807401000,19.47840087890625,-0.021991131827235222,-0.002443459117785096,0.03848448023200035
1766385768824363300,19.49536328125,-0.01649334840476513,0.0030543238390237093,0.03543015569448471
1766385768841325600,19.51232568359375,-0.014660755172371864,-0.004886918235570192,0.05070177838206291
1766385768858288000,19.5292880859375,-0.023823726922273636,-0.021991131827235222,0.056810423731803894
1766385768875250400,19.54625048828125,-0.03481929376721382,-0.021380268037319183,0.06475166976451874
1766385768892212700,19.563212646484374,-0.020158538594841957,-0.031154103577136993,0.07330377399921417
1766385768909175300,19.58017529296875,-0.017715077847242355,-0.037262752652168274,0.047036588191986084
1766385768926137600,19.5971376953125,-0.02932151034474373,-0.017715077847242355,0.02871064469218254
1766385768943100000,19.614099853515626,-0.02932151034474373,-0.053145237267017365,0.0409279391169548
1766385768960062200,19.631062255859376,-0.04886918142437935,0.037262752652168274,-0.22174391150474548
1766385768977024800,19.648024658203123,-0.0256563201546669,0.07024945318698883,-0.004886918235570192
1766385768993987000,19.664987060546874,0.01649334840476513,0.009773836471140385,-0.01588248461484909
1766385769010949600,19.68194970703125,0.012217295356094837,0.010384701192378998,0.031154103577136993
1766385769027912000,19.698911865234376,0.017104214057326317,-0.017104214057326317,0.021380268037319183
1766385769044874200,19.715874267578126,0.009773836471140385,0.028099779039621353,-0.0824667438864708
1766385769061836500,19.73283642578125,0.01954767294228077,0.30115634202957153,-0.1747073233127594
1766385769078799000,19.749799072265624,0.08979712426662445,-0.020158538594841957,0.5784889459609985
1766385769095761400,19.766761474609375,0.049480047076940536,-0.08674279600381851,-0.06414080411195755
1766385769112723700,19.7837236328125,-0.046425722539424896,0.05742128938436508,-0.13255766034126282
1766385769129686300,19.800686279296876,-0.027488915249705315,-0.003665188793092966,-0.12278381735086441
1766385769146648600,19.817648681640627,-0.03481929376721382,0.024434590712189674,-0.2626718580722809
1766385769163611000,19.83461083984375,-0.05070177838206291,0.10873392969369888,-0.2712239623069763
1766385769180573200,19.8515732421875,-0.002443459117785096,0.0818558782339096,-0.30054548382759094
1766385769197535700,19.86853564453125,0.025045456364750862,0.06963858753442764,0.15515965223312378
1766385769214498000,19.885498046875,0.012217295356094837,0.010995565913617611,-0.30604326725006104
1766385769231460400,19.90246044921875,0.001832594396546483,-0.000610864779446274,0.205861434340477
1766385769248422700,19.919422607421875,0.002443459117785096,-0.053145237267017365,-0.19120067358016968
1766385769265385200,19.93638525390625,-0.004276053514331579,0.020769402384757996,-0.018325943499803543
1766385769282347500,19.953347412109373,-0.004276053514331579,0.01588248461484909,-0.16615521907806396
1766385769299309800,19.970309814453124,0.007941242307424545,0.059864748269319534,-0.2370155304670334
1766385769316272000,19.987272216796875,0.012217295356094837,0.16126830875873566,-0.025045456364750862
1766385769333234700,20.004234619140625,0.053145237267017365,0.0977383628487587,-0.08491020649671555
1766385769350197000,20.021197021484376,0.06780599057674408,-0.011606430634856224,0.07330377399921417
1766385769367159300,20.0381591796875,0.05864302068948746,-0.11117739230394363,0.2528980076313019
1766385769384121600,20.05512158203125,0.010384701192378998,-0.01649334840476513,0.24495677649974823
1766385769401084000,20.072083984375,0.012217295356094837,-0.0513126403093338,-0.03909534588456154
1766385769418046500,20.08904638671875,0.01649334840476513,0.002443459117785096,0.13133592903614044
1766385769435008800,20.1060087890625,0.03787361457943916,0.014660755172371864,-0.09407317638397217
1766385769451971000,20.12297119140625,0.043982263654470444,0.047036588191986084,-0.10567960888147354
1766385769468933400,20.139933349609375,0.03543015569448471,0.056810423731803894,-0.07391463965177536
1766385769485896000,20.15689599609375,0.03237583488225937,0.03298669680953026,-0.02932151034474373
1766385769502858200,20.173858154296877,0.03237583488225937,0.008552107028663158,0.014049889519810677
1766385769519820500,20.190820556640624,0.040317077189683914,-0.01282816007733345,0.07635809481143951
1766385769536782800,20.207782958984374,0.05070177838206291,0.0030543238390237093,0.1026252806186676
1766385769553745400,20.224745361328125,0.05742128938436508,0.009162971749901772,0.036651886999607086
1766385769570707700,20.241707763671876,0.06841685622930527,0.029932374134659767,0.053145237267017365
1766385769587670000,20.258669921875,0.07086031138896942,0.03237583488225937,-0.02260199747979641
1766385769604632300,20.27563232421875,0.06719512492418289,0.0409279391169548,0.009773836471140385
1766385769621594600,20.2925947265625,0.07024945318698883,0.047036588191986084,-0.028099779039621353
1766385769638557200,20.30955712890625,0.0824667438864708,0.04520399495959282,0.0360410213470459
1766385769655519500,20.32651953125,0.09346231073141098,0.047036588191986084,0.030543239787220955
1766385769672481800,20.343481689453125,0.11484257876873016,0.07024945318698883,0.046425722539424896
1766385769689444000,20.360444091796875,0.13927717506885529,0.06414080411195755,0.010995565913617611
1766385769706406700,20.37740673828125,0.14782927930355072,0.06902772188186646,-0.004276053514331579
1766385769723369000,20.394368896484377,0.1337793916463852,0.07269290834665298,-0.01282816007733345
1766385769740331300,20.411331298828124,0.1282816082239151,0.04581485688686371,-0.03237583488225937
1766385769757293600,20.42829345703125,0.11667517572641373,0.04825831577181816,-0.002443459117785096
1766385769774255900,20.445255859375,0.10995566099882126,0.036651886999607086,-0.002443459117785096
1766385769791218400,20.462218505859376,0.10629047453403473,0.033597562462091446,0.0256563201546669
1766385769808180700,20.4791806640625,0.10140355676412582,0.029932374134659767,0.014049889519810677
1766385769825143000,20.49614306640625,0.08796452730894089,0.02871064469218254,0.011606430634856224
1766385769842105300,20.513105224609376,0.07086031138896942,0.026878049597144127,0.01282816007733345
1766385769859067600,20.530067626953127,0.06597339361906052,0.020158538594841957,0.002443459117785096
1766385769876030200,20.5470302734375,0.06108647957444191,0.020158538594841957,0.008552107028663158
1766385769892992500,20.563992431640624,0.05864302068948746,0.018325943499803543,-0.008552107028663158
1766385769909954800,20.580954833984375,0.05803215503692627,0.02626718580722809,0.002443459117785096
1766385769926917000,20.597917236328126,0.06230820715427399,0.017715077847242355,-0.020769402384757996
1766385769943879400,20.61487939453125,0.0616973415017128,0.02932151034474373,0.008552107028663158
1766385769960842000,20.631842041015624,0.0665842592716217,0.017104214057326317,0.006108647678047419
1766385769977804300,20.64880419921875,0.06963858753442764,0.01954767294228077,0.004276053514331579
1766385769994766600,20.6657666015625,0.07086031138896942,0.017715077847242355,0.003665188793092966
1766385770011729000,20.68272900390625,0.06597339361906052,0.021380268037319183,0.007941242307424545
1766385770028691200,20.699691162109374,0.06291907280683517,0.01893680728971958,-0.006719512399286032
