time,seconds_elapsed,z,y,x
1766385749437101600,0.1081015625,9.372686386108398,2.1655044555664062,0.2392822653055191
1766385749454060300,0.125060302734375,9.42054271697998,2.170290231704712,0.1986042857170105
1766385749471022300,0.142022216796875,9.482755661010742,2.1655044555664062,0.17228323221206665
1766385749487984600,0.158984619140625,9.56650447845459,2.2396819591522217,0.17946170270442963
1766385749504947000,0.175947021484375,9.518648147583008,2.273181438446045,0.18903298676013947
1766385749521909200,0.1929091796875,9.449256896972656,2.2540390491485596,0.2153540402650833
1766385749538871300,0.209871337890625,9.351150512695312,2.218146562576294,0.22971096634864807
1766385749555833600,0.22683349609375,9.300901412963867,2.2372891902923584,0.25363919138908386
1766385749572796000,0.2437958984375,9.42772102355957,2.313859462738037,0.24167509377002716
1766385749589758000,0.260758056640625,9.53061294555664,2.2157537937164307,0.1986042857170105
1766385749606720300,0.27772021484375,9.461220741271973,2.203789710998535,0.16510476171970367
1766385749623682600,0.2946826171875,9.403793334960938,2.304288148880005,0.15553347766399384
1766385749640644600,0.31164453125,9.45164966583252,2.3258235454559326,0.1866401731967926
1766385749657607000,0.32860693359375,9.487542152404785,2.2851455211639404,0.24167509377002716
1766385749674569200,0.3455693359375,9.43489933013916,2.280359983444214,0.2632105052471161
1766385749691531300,0.36253125,9.492327690124512,2.2372891902923584,0.2153540402650833
1766385749708493600,0.37949365234375,9.437292098999023,2.242074728012085,0.19621145725250244
1766385749725456000,0.396455810546875,9.353543281555176,2.2707886695861816,0.17228323221206665
1766385749742418000,0.41341796875,9.329615592956543,2.2947168350219727,0.18903298676013947
1766385749759380200,0.430380126953125,9.45164966583252,2.2755744457244873,0.1746760457754135
1766385749776342500,0.447342529296875,9.602396965026855,2.297109842300415,0.19142581522464752
1766385749793304600,0.4643046875,9.547362327575684,2.2851455211639404,0.1818545162677765
1766385749810267000,0.481266845703125,9.367900848388672,2.2707886695861816,0.19381862878799438
1766385749827229200,0.498229248046875,9.346364974975586,2.3162522315979004,0.21296121180057526
1766385749844191200,0.515191162109375,9.41336441040039,2.2755744457244873,0.22492532432079315
1766385749861153500,0.532153564453125,9.42054271697998,2.2540390491485596,0.24167509377002716
1766385749878115800,0.54911572265625,9.389435768127441,2.2947168350219727,0.2105683982372284
1766385749895078000,0.566077880859375,9.42054271697998,2.342573404312134,0.18903298676013947
1766385749912040200,0.583040283203125,9.442078590393066,2.390429735183716,0.1339980661869049
1766385749929002500,0.60000244140625,9.56650447845459,2.335394859313965,0.10767702013254166
1766385749945964500,0.616964599609375,9.523433685302734,2.273181438446045,0.11246266216039658
1766385749962926800,0.6339267578125,9.418149948120117,2.2851455211639404,0.1339980661869049
1766385749979889200,0.65088916015625,9.298508644104004,2.2636101245880127,0.16749759018421173
1766385749996851200,0.667851318359375,9.291330337524414,2.328216314315796,0.18424734473228455
1766385750013813500,0.6848134765625,9.363115310668945,2.3617160320281982,0.19381862878799438
1766385750030775800,0.70177587890625,9.446864128112793,2.4430718421936035,0.15074782073497772
1766385750047737900,0.71873779296875,9.516255378723145,2.4335005283355713,0.14835500717163086
1766385750064700200,0.7357001953125,9.602396965026855,2.306680917739868,0.16271193325519562
1766385750081664800,0.752664794921875,9.492327690124512,2.321038007736206,0.11964113265275955
1766385750098624500,0.76962451171875,9.363115310668945,2.2947168350219727,0.1339980661869049
1766385750115586800,0.7865869140625,9.250652313232422,2.3473589420318604,0.19142581522464752
1766385750132549000,0.803549072265625,9.20279598236084,2.4047868251800537,0.15074782073497772
1766385750149511200,0.82051123046875,9.432506561279297,2.4502503871917725,0.1052841991186142
1766385750166473500,0.837473388671875,9.628718376159668,2.4430718421936035,0.13639089465141296
1766385750183435800,0.854435791015625,9.638289451599121,2.335394859313965,0.16031911969184875
1766385750200397800,0.871397705078125,9.454042434692383,2.297109842300415,0.16749759018421173
1766385750217360100,0.888360107421875,9.293723106384277,2.306680917739868,0.15314064919948578
1766385750234322400,0.905322509765625,9.250652313232422,2.3330020904541016,0.18424734473228455
1766385750251284500,0.922284423828125,9.322437286376953,2.3473589420318604,0.1698904037475586
1766385750268246800,0.939246826171875,9.470791816711426,2.4717857837677,0.11964113265275955
1766385750285209000,0.956208984375,9.53061294555664,2.3569302558898926,0.10767702013254166
1766385750302171100,0.973171142578125,9.55214786529541,2.3617160320281982,0.17228323221206665
1766385750319133400,0.990133544921875,9.41336441040039,2.3641088008880615,0.1986042857170105
1766385750336095700,1.007095703125,9.31047248840332,2.344966173171997,0.1339980661869049
1766385750353057800,1.024057861328125,9.34875774383545,2.3712873458862305,0.1579262912273407
1766385750370020000,1.04102001953125,9.410971641540527,2.3952155113220215,0.13160525262355804
1766385750386982400,1.057982421875,9.518648147583008,2.4191436767578125,0.10049854964017868
1766385750403944400,1.0749443359375,9.540184020996094,2.438286304473877,0.12203395366668701
1766385750420906800,1.09190673828125,9.442078590393066,2.3497519493103027,0.16749759018421173
1766385750437869000,1.108869140625,9.322437286376953,2.366501569747925,0.20817556977272034
1766385750454831000,1.1258310546875,9.32004451751709,2.344966173171997,0.19621145725250244
1766385750471793400,1.14279345703125,9.377471923828125,2.368894338607788,0.15553347766399384
1766385750488755700,1.159755615234375,9.485149383544922,2.462214469909668,0.12681959569454193
1766385750505718000,1.176718017578125,9.516255378723145,2.4191436767578125,0.07417750358581543
1766385750522680000,1.19368017578125,9.470791816711426,2.359323024749756,0.12442677468061447
1766385750539642400,1.210642333984375,9.375079154968262,2.328216314315796,0.1986042857170105
1766385750556604700,1.227604736328125,9.41336441040039,2.3808584213256836,0.2225325107574463
1766385750573566700,1.244566650390625,9.44447135925293,2.3976082801818848,0.1698904037475586
1766385750590529000,1.261529052734375,9.387042999267578,2.3952155113220215,0.11006984114646912
1766385750607491300,1.2784912109375,9.387042999267578,2.486142635345459,0.12203395366668701
1766385750624453600,1.29545361328125,9.509077072143555,2.462214469909668,0.16031911969184875
1766385750641415700,1.312415771484375,9.454042434692383,2.407179594039917,0.18424734473228455
1766385750658378000,1.3293779296875,9.396614074707031,2.4358935356140137,0.19142581522464752
1766385750675340300,1.34634033203125,9.339186668395996,2.3952155113220215,0.16749759018421173
1766385750692302300,1.36330224609375,9.408578872680664,2.400001049041748,0.14835500717163086
1766385750709264600,1.3802646484375,9.430113792419434,2.4263222217559814,0.15314064919948578
1766385750726227000,1.39722705078125,9.480362892150879,2.4263222217559814,0.13160525262355804
1766385750743189200,1.414189208984375,9.382257461547852,2.447857618331909,0.14835500717163086
1766385750760151600,1.431151611328125,9.372686386108398,2.4741785526275635,0.16510476171970367
1766385750777113600,1.448113525390625,9.399007797241211,2.486142635345459,0.1746760457754135
1766385750794076000,1.465075927734375,9.399007797241211,2.478964328765869,0.15553347766399384
1766385750811038200,1.4820380859375,9.475577354431152,2.447857618331909,0.14356936514377594
1766385750828000500,1.49900048828125,9.418149948120117,2.423929452896118,0.19621145725250244
1766385750844962600,1.515962646484375,9.382257461547852,2.414358139038086,0.20578274130821228
1766385750861924900,1.5329248046875,9.343972206115723,2.4191436767578125,0.15553347766399384
1766385750878887200,1.54988720703125,9.351150512695312,2.4765713214874268,0.12442677468061447
1766385750895849500,1.566849365234375,9.461220741271973,2.550748825073242,0.1459621787071228
1766385750912811800,1.583811767578125,9.509077072143555,2.493321180343628,0.19621145725250244
1766385750929773800,1.60077392578125,9.399007797241211,2.469393014907837,0.20817556977272034
1766385750946736000,1.617736083984375,9.358329772949219,2.4191436767578125,0.1746760457754135
1766385750963698400,1.634698486328125,9.322437286376953,2.4406790733337402,0.15074782073497772
1766385750980660700,1.65166064453125,9.394221305847168,2.445464849472046,0.16271193325519562
1766385750997623000,1.668623046875,9.430113792419434,2.469393014907837,0.19142581522464752
1766385751014585000,1.685585205078125,9.489934921264648,2.4430718421936035,0.17706887423992157
1766385751031547400,1.70254736328125,9.513862609863281,2.4646072387695312,0.2799602448940277
1766385751048509700,1.719509765625,9.494720458984375,2.4335005283355713,0.2584248483181
1766385751065472000,1.736471923828125,9.365508079528809,2.495713949203491,0.23688943684101105
1766385751082434300,1.753434326171875,9.253045082092285,2.581855535507202,0.19381862878799438
1766385751099396600,1.770396728515625,9.468399047851562,2.5148565769195557,0.35413774847984314
1766385751116359000,1.78735888671875,9.884750366210938,2.5148565769195557,0.5024927258491516
1766385751133321000,1.804321044921875,9.707681655883789,2.581855535507202,0.4019941985607147
1766385751150283300,1.821283203125,9.260223388671875,2.761317253112793,0.12442677468061447
1766385751167245600,1.83824560546875,9.403793334960938,2.8115665912628174,0.07657032459974289
1766385751184208000,1.855207763671875,9.042476654052734,2.754138946533203,-0.0526420995593071
1766385751201170200,1.872170166015625,8.72183895111084,2.885744094848633,-0.20578274130821228
1766385751218132500,1.889132568359375,8.937192916870117,3.1441688537597656,-0.24167509377002716
1766385751235094500,1.906094482421875,9.080761909484863,3.1728827953338623,-0.19621145725250244
1766385751252056800,1.923056884765625,9.31047248840332,3.1345977783203125,-0.08853443711996078
1766385751269019100,1.94001904296875,9.291330337524414,3.1752755641937256,0.19381862878799438
1766385751285981400,1.9569814453125,9.281759262084961,3.0029923915863037,0.24646073579788208
1766385751302943700,1.97394384765625,8.819944381713867,2.8043880462646484,0.32303106784820557
1766385751319906000,1.990906005859375,8.659625053405762,3.2350962162017822,-0.14117653667926788
1766385751336868400,2.007868408203125,9.040083885192871,3.263810157775879,0.13639089465141296
1766385751353830700,2.02483056640625,9.372686386108398,3.1202406883239746,0.2153540402650833
1766385751370793000,2.04179296875,9.942177772521973,3.160918712615967,0.12681959569454193
1766385751387755300,2.05875537109375,9.9469633102417,3.084348440170288,0.11724831163883209
1766385751404717600,2.075717529296875,9.291330337524414,3.1274192333221436,0.25363919138908386
1766385751421679900,2.092679931640625,8.240880966186523,3.050848960876465,-0.02153540402650833
1766385751438642000,2.109641845703125,8.568697929382324,2.8498518466949463,-0.019142581149935722
1766385751455604200,2.126604248046875,9.133403778076172,2.9168508052825928,0.0933200865983963
1766385751472566500,2.14356640625,9.7938232421875,2.991028308868408,0.18424734473228455
1766385751489528800,2.16052880859375,9.784252166748047,3.0245277881622314,0.1986042857170105
1766385751506491100,2.1774912109375,9.525827407836914,2.988635540008545,0.10049854964017868
1766385751523453400,2.194453369140625,9.087940216064453,3.0340991020202637,0.10767702013254166
1766385751540415700,2.211415771484375,8.882157325744629,3.0556344985961914,0.064606212079525
1766385751557378000,2.2283779296875,8.922835350036621,2.9934210777282715,0.05024927482008934
1766385751574340400,2.24534033203125,9.229117393493652,2.940778970718384,0.13878370821475983
1766385751591302700,2.262302734375,9.363115310668945,2.8833513259887695,0.16510476171970367
1766385751608265000,2.279264892578125,9.477970123291016,2.895315408706665,0.16510476171970367
1766385751625227300,2.296227294921875,9.542576789855957,3.0077781677246094,0.15553347766399384
1766385751642189600,2.313189453125,9.370293617248535,2.9958138465881348,0.08135596662759781
1766385751659152000,2.33015185546875,9.250652313232422,2.940778970718384,0.08853443711996078
1766385751676114200,2.3471142578125,9.1716890335083,2.8426733016967773,0.09810572862625122
1766385751693076500,2.364076416015625,9.257830619812012,2.9623143672943115,0.15074782073497772
1766385751710038500,2.38103857421875,9.241081237792969,2.943171739578247,0.1818545162677765
1766385751727000800,2.398000732421875,9.241081237792969,3.06999135017395,0.15553347766399384
1766385751743963100,2.414963134765625,9.332008361816406,3.012563705444336,0.08614161610603333
1766385751760925400,2.431925537109375,9.31047248840332,3.0340991020202637,0.12921242415905
1766385751777887700,2.4488876953125,9.470791816711426,2.974278450012207,0.02153540402650833
1766385751794850000,2.46585009765625,9.430113792419434,2.9694929122924805,0.04785645380616188
1766385751811812400,2.482812255859375,9.06401252746582,2.857030153274536,-0.02392822690308094
1766385751828774700,2.499774658203125,8.951549530029297,2.9216363430023193,-0.004785645287483931
1766385751845737000,2.516737060546875,8.896514892578125,3.0077781677246094,0.1459621787071228
1766385751862699300,2.53369921875,9.164510726928711,3.1585259437561035,0.22013968229293823
1766385751879661600,2.55066162109375,9.274580955505371,3.1992039680480957,0.22492532432079315
1766385751896623900,2.567623779296875,9.315258979797363,3.2374889850616455,0.038285162299871445
1766385751913586200,2.584586181640625,9.154939651489258,3.4265220165252686,0.040677983313798904
1766385751930548500,2.601548583984375,9.145368576049805,3.486342668533325,0.040677983313798904
1766385751947510800,2.6185107421875,8.745766639709473,3.328416347503662,-0.05024927482008934
1766385751964473000,2.63547314453125,8.724231719970703,3.366701364517212,-0.02153540402650833
1766385751981435400,2.652435302734375,8.762516975402832,3.4576287269592285,0.08374879509210587
1766385751998397700,2.669397705078125,9.142974853515625,3.6681971549987793,0.2560320198535919
1766385752015360000,2.686360107421875,9.42772102355957,3.88594388961792,0.6125625967979431
1766385752032322300,2.703322265625,9.805787086486816,3.579662561416626,0.5216353535652161
1766385752049284600,2.72028466796875,9.705288887023926,3.383451223373413,0.1986042857170105
1766385752066247000,2.737246826171875,8.9850492477417,3.541377544403076,0.05024927482008934
1766385752083209200,2.754209228515625,8.908478736877441,3.493520975112915,0.20578274130821228
1766385752100171500,2.771171630859375,8.6907320022583,3.4193434715270996,0.2919243574142456
1766385752117133800,2.7881337890625,8.635697364807129,3.5461630821228027,0.1866401731967926
1766385752134096000,2.805095947265625,9.346364974975586,3.22552490234375,0.2799602448940277
1766385752151058200,2.82205810546875,9.284152030944824,3.469592809677124,0.3852444589138031
1766385752168020700,2.839020751953125,9.164510726928711,3.589233875274658,0.38285163044929504
1766385752184983000,2.855983154296875,8.913264274597168,3.3714871406555176,0.4666004180908203
1766385752201945000,2.872945068359375,8.72901725769043,3.407379388809204,0.3397808074951172
1766385752218907400,2.889907470703125,8.865407943725586,3.3092737197875977,0.275174617767334
1766385752235869700,2.90686962890625,8.874979019165039,3.414557933807373,0.18903298676013947
1766385752252832000,2.92383203125,9.104690551757812,3.297309637069702,0.23210379481315613
1766385752269794600,2.940794677734375,9.245866775512695,3.177668571472168,0.10289137065410614
1766385752286756600,2.957756591796875,9.45164966583252,3.397808074951172,0.16749759018421173
1766385752303719000,2.974718994140625,9.693324089050293,3.38105845451355,0.16031911969184875
1766385752320681200,2.99168115234375,9.410971641540527,3.1968109607696533,0.07896314561367035
1766385752337643500,3.0086435546875,8.920442581176758,3.1417760848999023,-0.014356935396790504
1766385752354605800,3.025605712890625,8.786444664001465,2.9527430534362793,0.04546362906694412
1766385752371568000,3.042568115234375,8.94676399230957,3.160918712615967,0.1339980661869049
1766385752388530400,3.059530517578125,8.908478736877441,3.005385160446167,-0.08135596662759781
1766385752405492700,3.07649267578125,9.482755661010742,3.1992039680480957,0.10049854964017868
1766385752422455000,3.093455078125,9.540184020996094,3.1585259437561035,-0.4091726839542389
1766385752439417300,3.110417236328125,9.714859962463379,3.352344512939453,0
1766385752456379600,3.127379638671875,8.997013092041016,2.9862427711486816,-0.14117653667926788
1766385752473342000,3.144342041015625,8.681160926818848,3.0723843574523926,0.15314064919948578
1766385752490304300,3.16130419921875,8.525627136230469,2.9383862018585205,0.13639089465141296
1766385752507266600,3.1782666015625,8.886942863464355,3.1489546298980713,0.33738797903060913
1766385752524228900,3.195228759765625,9.446864128112793,3.4648072719573975,0.4498506486415863
1766385752541191200,3.212191162109375,9.269794464111328,3.25663161277771,-0.007178467698395252
1766385752558153500,3.229153564453125,9.040083885192871,3.3547372817993164,-0.08614161610603333
1766385752575115800,3.24611572265625,9.126225471496582,3.10109806060791,0.031106693670153618
1766385752592078000,3.263078125,8.992227554321289,3.043670415878296,0.02153540402650833
1766385752609040400,3.280040283203125,9.293723106384277,3.1417760848999023,0.02871387079358101
1766385752626002700,3.297002685546875,9.243474006652832,3.1920254230499268,-0.059820566326379776
1766385752642965000,3.313965087890625,9.150154113769531,3.239881753921509,-0.06699903309345245
1766385752659927300,3.33092724609375,8.970691680908203,3.136990547180176,-0.035892341285943985
1766385752676889600,3.3478896484375,9.154939651489258,2.9862427711486816,0.15314064919948578
1766385752693852000,3.364851806640625,9.052047729492188,3.0077781677246094,0.1746760457754135
1766385752710814200,3.381814208984375,9.415757179260254,3.091526746749878,0.014356935396790504
1766385752727776500,3.398776611328125,9.28893756866455,3.105883836746216,-0.16510476171970367
1766385752744738800,3.41573876953125,9.09272575378418,3.0556344985961914,-0.17946170270442963
1766385752761701000,3.432701171875,9.104690551757812,2.9766714572906494,-0.17946170270442963
1766385752778663400,3.449663330078125,9.358329772949219,3.136990547180176,-0.07657032459974289
1766385752795625700,3.466625732421875,9.449256896972656,3.1992039680480957,-0.1866401731967926
1766385752812588000,3.483588134765625,9.34157943725586,3.0723843574523926,-0.11485548317432404
1766385752829550300,3.50055029296875,9.030512809753418,2.9048867225646973,0.035892341285943985
1766385752846512600,3.5175126953125,9.042476654052734,2.9623143672943115,0.10049854964017868
1766385752863475000,3.534474853515625,9.351150512695312,3.0101709365844727,0.064606212079525
1766385752880437200,3.551437255859375,9.56650447845459,3.098705291748047,-0.019142581149935722
1766385752897399600,3.568399658203125,9.475577354431152,3.105883836746216,-0.08374879509210587
1766385752914361900,3.58536181640625,9.150154113769531,3.0245277881622314,-0.13160525262355804
1766385752931324200,3.60232421875,8.915657043457031,2.9479575157165527,-0.0526420995593071
1766385752948286500,3.619286376953125,9.025727272033691,2.957528829574585,0.007178467698395252
1766385752965248800,3.636248779296875,9.430113792419434,3.0077781677246094,0.20578274130821228
1766385752982211000,3.653211181640625,9.4660062789917,3.0891339778900146,0.1052841991186142
1766385752999173400,3.67017333984375,9.315258979797363,3.0580272674560547,-0.05742774158716202
1766385753016135700,3.6871357421875,8.994620323181152,3.0029923915863037,-0.08853443711996078
1766385753033098000,3.704097900390625,8.901300430297852,2.9527430534362793,0.007178467698395252
1766385753050060300,3.721060302734375,9.07119083404541,2.9359934329986572,0.0023928226437419653
1766385753067022600,3.738022705078125,9.363115310668945,3.0269205570220947,0.04546362906694412
1766385753083985000,3.75498486328125,9.611968994140625,3.1274192333221436,-0.02153540402650833
1766385753100947200,3.771947265625,9.425328254699707,3.0340991020202637,0
1766385753117909500,3.788909423828125,9.10229778289795,2.933600664138794,0.02632104977965355
1766385753134871800,3.805871826171875,9.047262191772461,2.8043880462646484,0.038285162299871445
1766385753151834000,3.822834228515625,9.521040916442871,2.9216363430023193,0.08135596662759781
1766385753168796400,3.83979638671875,9.712467193603516,3.2135608196258545,0.0023928226437419653
1766385753185758700,3.8567587890625,9.533005714416504,3.153740167617798,-0.1459621787071228
1766385753202721000,3.873720947265625,9.013762474060059,2.9790642261505127,-0.14356936514377594
1766385753219683300,3.890683349609375,8.779266357421875,2.964707374572754,0.03349951654672623
1766385753236645600,3.907645751953125,8.752944946289062,2.8450660705566406,-0.02632104977965355
1766385753253608000,3.92460791015625,9.468399047851562,3.0484559535980225,0.20817556977272034
1766385753270570200,3.9415703125,9.580862045288086,3.0245277881622314,0.009571290574967861
1766385753287532500,3.958532470703125,9.4061861038208,3.074777126312256,-0.11724831163883209
1766385753304494800,3.975494873046875,9.025727272033691,3.012563705444336,-0.14117653667926788
1766385753321457200,3.99245703125,8.752944946289062,2.792423963546753,-0.11964113265275955
1766385753338419500,4.00941943359375,8.786444664001465,2.9216363430023193,-0.17228323221206665
1766385753355381800,4.0263818359375,9.205188751220703,3.0317063331604004,-0.08853443711996078
1766385753372344000,4.043343994140625,9.205188751220703,3.0556344985961914,-0.20578274130821228
1766385753389306400,4.060306396484375,9.647860527038574,2.9838497638702393,-0.8255237936973572
1766385753406268700,4.0772685546875,10.238887786865234,3.177668571472168,-1.0671988725662231
1766385753423231000,4.09423095703125,9.535398483276367,3.10109806060791,-0.3038884699344635
1766385753440193300,4.111193359375,8.606983184814453,2.6943182945251465,0.31106695532798767
1766385753457155600,4.128155517578125,8.910871505737305,2.8666014671325684,0.8973084688186646
1766385753474118000,4.145117919921875,8.944371223449707,2.7637102603912354,0.727418065071106
1766385753491080200,4.162080078125,8.956335067749023,2.6799614429473877,0.16510476171970367
1766385753508042500,4.17904248046875,9.521040916442871,3.012563705444336,0.5264210104942322
1766385753525004800,4.1960048828125,10.114460945129395,3.6705899238586426,-0.4139583110809326
1766385753541967000,4.212967041015625,9.7938232421875,3.19441819190979,-0.5120640397071838
1766385753558929400,4.229929443359375,9.403793334960938,3.4911282062530518,-0.6005984544754028
1766385753575891700,4.2468916015625,8.640482902526855,3.1657042503356934,-0.6221339106559753
1766385753592854000,4.26385400390625,8.647661209106445,2.287538528442383,0.43549370765686035
1766385753609816300,4.28081640625,9.844072341918945,2.6632115840911865,1.100698471069336
1766385753626778600,4.297778564453125,10.619346618652344,3.1274192333221436,0.4737788736820221
1766385753643741000,4.314740966796875,9.477970123291016,3.4337005615234375,-0.016749758273363113
1766385753660703200,4.331703125,8.874979019165039,3.6921253204345703,-0.4546363055706024
1766385753677665500,4.34866552734375,9.023334503173828,3.4121651649475098,-0.20338992774486542
1766385753694627800,4.3656279296875,8.786444664001465,3.1417760848999023,0.23210379481315613
1766385753711590100,4.382590087890625,8.458627700805664,2.746960401535034,0.380458801984787
1766385753728552400,4.399552490234375,8.906085968017578,2.8522446155548096,0.8255237936973572
1766385753745514800,4.4165146484375,8.872586250305176,3.1513473987579346,0.41874396800994873
1766385753762477000,4.43347705078125,9.332008361816406,3.5437703132629395,-0.2273181527853012
1766385753779439400,4.450439453125,10.284351348876953,3.94097900390625,-0.851844847202301
1766385753796401700,4.467401611328125,11.542976379394531,3.9672999382019043,-1.7252250909805298
1766385753813364000,4.484364013671875,10.746166229248047,3.7878382205963135,-1.6630117893218994
1766385753830326300,4.501326171875,8.975478172302246,3.077169895172119,-0.8015955686569214
1766385753847288600,4.51828857421875,8.195417404174805,3.105883836746216,-0.4259224236011505
1766385753864251000,4.5352509765625,8.987442016601562,3.1274192333221436,-0.4713860750198364
1766385753881213200,4.552213134765625,9.233902931213379,2.486142635345459,0.9906286001205444
1766385753898175500,4.569175537109375,8.918049812316895,2.667997360229492,0.9643075466156006
1766385753915137800,4.5861376953125,8.630910873413086,3.555734395980835,0.05024927482008934
1766385753932100000,4.60310009765625,6.8004021644592285,3.531806230545044,-1.6151553392410278
1766385753949062400,4.6200625,6.977470874786377,3.6394832134246826,-1.3471591472625732
1766385753966024700,4.637024658203125,8.140382766723633,4.034298896789551,-0.5048855543136597
1766385753982987000,4.653987060546875,9.004191398620605,3.28773832321167,-0.03349951654672623
1766385753999952100,4.6709521484375,10.784451484680176,3.2207393646240234,0.24646073579788208
1766385754016911600,4.68791162109375,12.191431045532227,2.8905298709869385,1.0791629552841187
1766385754033874000,4.7048740234375,12.107682228088379,2.282752752304077,2.0506489276885986
1766385754050836200,4.721836181640625,10.521241188049316,1.852044701576233,2.744567632675171
1766385754067798500,4.738798583984375,8.02074146270752,1.679761528968811,2.400001049041748
1766385754084760800,4.7557607421875,6.39601469039917,1.4883357286453247,1.1126625537872314
1766385754101723100,4.77272314453125,7.156932353973389,2.0961127281188965,-2.3736801147460938
1766385754118685400,4.789685546875,8.011170387268066,2.9527430534362793,-2.66560435295105
1766385754135647700,4.806647705078125,8.118846893310547,3.1178479194641113,-1.4620146751403809
1766385754152610000,4.823610107421875,7.590033531188965,2.8043880462646484,-1.5984054803848267
1766385754169572400,4.840572265625,8.279166221618652,2.794816732406616,-2.0243279933929443
1766385754186534700,4.85753466796875,9.401400566101074,3.342773199081421,-4.402793884277344
1766385754203497000,4.8744970703125,8.023134231567383,3.5581271648406982,-4.347758769989014
1766385754220459300,4.891459228515625,7.326822757720947,3.572484254837036,-3.445664644241333
1766385754237421600,4.908421630859375,8.602197647094727,2.7278177738189697,-1.3399807214736938
1766385754254383900,4.9253837890625,10.411170959472656,2.699103832244873,-0.2560320198535919
1766385754271346200,4.94234619140625,8.779266357421875,2.988635540008545,-0.7537391185760498
1766385754288308500,4.95930859375,7.302894592285156,3.7160534858703613,-3.129812002182007
1766385754305270800,4.976270751953125,7.637889862060547,4.321437835693359,-3.627519130706787
1766385754322233000,4.993233154296875,7.389036178588867,3.895515203475952,-3.0556344985961914
1766385754339195400,5.0101953125,7.338787078857422,2.9766714572906494,-4.342973232269287
1766385754356157700,5.02715771484375,4.096512317657471,3.074777126312256,-6.209374904632568
1766385754373120000,5.0441201171875,9.607182502746582,3.1800613403320312,-3.4265220165252686
1766385754398563300,5.069563232421875,10.437492370605469,2.3569302558898926,-1.1509476900100708
1766385754415525600,5.086525634765625,11.490334510803223,3.5222349166870117,-2.249253273010254
1766385754432488000,5.103488037109375,10.987841606140137,4.0319061279296875,-2.53399920463562
1766385754449450200,5.1204501953125,10.090533256530762,3.957728624343872,-2.335394859313965
1766385754466412500,5.13741259765625,6.955935478210449,2.8666014671325684,-3.2159535884857178
1766385754483374800,5.154374755859375,5.091926574707031,0.6293123364448547,-3.7806596755981445
1766385754500337200,5.171337158203125,5.972485542297363,1.1270195245742798,-3.4552359580993652
1766385754517299500,5.188299560546875,7.135396957397461,2.155933141708374,-2.108076810836792
1766385754534261800,5.20526171875,9.944570541381836,1.588834285736084,-1.069591760635376
1766385754551224000,5.22222412109375,8.525627136230469,5.290530681610107,-0.9762716293334961
1766385754568186400,5.239186279296875,8.102097511291504,5.292923450469971,-1.0360921621322632
1766385754585149000,5.25614892578125,9.226723670959473,5.103890895843506,-2.5746772289276123
1766385754602111000,5.273111083984375,8.307880401611328,5.525027275085449,-3.9433717727661133
1766385754619073300,5.2900732421875,7.238288402557373,5.290530681610107,-4.500899314880371
1766385754636035600,5.30703564453125,5.862415313720703,3.3786656856536865,-3.7471601963043213
1766385754652998000,5.323997802734375,7.405786037445068,0.763310432434082,-1.5122638940811157
1766385754669960200,5.340960205078125,8.8438720703125,-1.2011969089508057,-5.565705299377441
1766385754686922500,5.357922607421875,7.0923261642456055,2.438286304473877,-5.649454116821289
1766385754703884800,5.374884765625,10.439885139465332,2.0673987865448,-7.690532207489014
1766385754720847000,5.39184716796875,10.224531173706055,2.8905298709869385,-6.180660724639893
1766385754737809400,5.408809326171875,10.849058151245117,3.950550079345703,-4.776073932647705
1766385754754771700,5.425771728515625,10.614561080932617,3.6059837341308594,-3.9194436073303223
1766385754771734300,5.442734375,9.65503978729248,3.493520975112915,-3.3475589752197266
1766385754788696600,5.459696533203125,9.810572624206543,2.5387847423553467,-2.8450660705566406
1766385754805659000,5.476658935546875,9.736394882202148,1.820937991142273,-2.423929452896118
1766385754822621000,5.493620849609375,9.573683738708496,2.888136863708496,-1.6271194219589233
1766385754839583200,5.510583251953125,8.817551612854004,3.153740167617798,-1.5696916580200195
1766385754856545500,5.527545654296875,7.267002582550049,2.234896421432495,-1.466800332069397
1766385754873507800,5.5445078125,7.4847493171691895,-0.6699903607368469,-2.557927370071411
1766385754890470100,5.56147021484375,8.975478172302246,-1.6462619304656982,-2.981456995010376
1766385754907432400,5.578432373046875,9.123832702636719,0.7010970115661621,-2.256431818008423
1766385754924395000,5.59539501953125,8.47298526763916,2.273181438446045,-1.4979069232940674
1766385754941357300,5.612357421875,8.554341316223145,3.3068809509277344,-0.914058268070221
1766385754958319400,5.6293193359375,8.824729919433594,3.9984066486358643,-0.49292147159576416
1766385754975281700,5.64628173828125,10.116853713989258,3.586841106414795,-0.2727817893028259
1766385754992244000,5.663243896484375,9.853643417358398,3.232703447341919,1.2586246728897095
1766385755009206300,5.680206298828125,8.417949676513672,3.2374889850616455,2.1678972244262695
1766385755026168600,5.69716845703125,9.080761909484863,2.6273193359375,1.5361921787261963
1766385755043131000,5.714130859375,7.941778182983398,10.207781791687012,3.06999135017395
1766385755060093200,5.73109326171875,11.700902938842773,2.2133610248565674,0.04307080805301666
1766385755077055700,5.7480556640625,9.970891952514648,3.0795626640319824,-0.007178467698395252
1766385755094018000,5.76501806640625,10.853843688964844,4.548755645751953,1.648654818534851
1766385755110980000,5.78197998046875,9.597611427307129,4.852644443511963,2.3641088008880615
1766385755127942400,5.7989423828125,9.844072341918945,3.1657042503356934,2.792423963546753
1766385755144904700,5.81590478515625,10.51645565032959,3.1824541091918945,3.2374889850616455
1766385755161867000,5.832866943359375,10.320243835449219,6.3122663497924805,2.3330020904541016
1766385755178829300,5.849829345703125,10.863414764404297,6.429514408111572,0.064606212079525
1766385755195791600,5.86679150390625,11.940184593200684,3.4432718753814697,-1.8113667964935303
1766385755212754200,5.883754150390625,11.810972213745117,2.517249345779419,-1.8065811395645142
1766385755229716500,5.900716552734375,10.17428207397461,5.106283664703369,-0.6675975322723389
1766385755246678500,5.917678466796875,9.18843936920166,4.323830604553223,1.1413763761520386
1766385755263640800,5.934640869140625,8.489734649658203,2.1343977451324463,2.806781053543091
1766385755280603100,5.95160302734375,7.331608772277832,0.9882357716560364,3.2781670093536377
1766385755297565700,5.968565673828125,7.520641803741455,1.0767701864242554,2.801995277404785
1766385755314528000,5.985528076171875,8.319844245910645,1.6414763927459717,1.7467604875564575
1766385755331490300,6.002490234375,10.28195858001709,2.63449764251709,0.9475577473640442
1766385755348452600,6.01945263671875,13.081561088562012,4.409972190856934,-1.4069796800613403
1766385755365415000,6.036414794921875,15.244672775268555,5.07517671585083,-3.751945972442627
1766385755382377200,6.053377197265625,12.495320320129395,5.216353416442871,-1.5625132322311401
1766385755399339500,6.070339599609375,11.710474014282227,6.927221775054932,1.4620146751403809
1766385755416301800,6.0873017578125,11.619546890258789,4.529613494873047,2.407179594039917
1766385755433264000,6.10426416015625,10.269994735717773,3.689732551574707,1.7276179790496826
1766385755450226400,6.121226318359375,8.882157325744629,4.12761926651001,1.6103696823120117
1766385755467188700,6.138188720703125,7.922635555267334,4.867001056671143,1.950150489807129
1766385755484151000,6.155151123046875,8.542376518249512,4.273581027984619,1.6007983684539795
1766385755501113300,6.17211328125,8.523234367370605,2.7876384258270264,0.7250252366065979
1766385755518075600,6.18907568359375,9.693324089050293,1.4883357286453247,-0.48813581466674805
1766385755535038000,6.206037841796875,11.198410034179688,2.857030153274536,-1.3543375730514526
1766385755552000300,6.223000244140625,11.586047172546387,4.429114818572998,-2.00518536567688
1766385755568962600,6.239962646484375,10.724631309509277,4.077369689941406,-2.416750907897949
1766385755585924900,6.2569248046875,9.784252166748047,3.507878065109253,-2.03629207611084
1766385755602887200,6.27388720703125,8.901300430297852,2.5387847423553467,-1.0456634759902954
1766385755619849500,6.290849365234375,8.116454124450684,1.8951154947280884,0.0526420995593071
1766385755636811800,6.307811767578125,8.360522270202637,0.8327022790908813,-0.2847459018230438
1766385755653774000,6.324774169921875,7.22871732711792,0.35413774847984314,-0.5934200286865234
1766385755670736400,6.341736328125,7.216753005981445,-0.8374879360198975,-1.2849457263946533
1766385755687698700,6.35869873046875,6.805187702178955,-1.428515076637268,-1.852044701576233
1766385755704661000,6.375660888671875,6.778866767883301,-0.9116654396057129,-1.94297194480896
1766385755721623300,6.392623291015625,6.879364967346191,0.1698904037475586,-1.9764715433120728
1766385755738585600,6.409585693359375,6.075376510620117,1.459621787071228,-1.8735800981521606
1766385755755548000,6.4265478515625,6.625725746154785,2.2444677352905273,-1.911865234375
1766385755772510200,6.44351025390625,5.960521221160889,2.9862427711486816,-1.8783657550811768
1766385755789472500,6.460472412109375,7.334001541137695,2.8354947566986084,-2.3497519493103027
1766385755806435000,6.47743505859375,7.683353424072266,3.3547372817993164,-2.3473589420318604
1766385755823397400,6.4943974609375,9.492327690124512,3.208775281906128,-2.0027925968170166
1766385755840359700,6.511359619140625,9.578469276428223,3.328416347503662,-1.832902193069458
1766385755857322000,6.528322021484375,8.6907320022583,5.862415313720703,-0.9834501147270203
1766385755874284300,6.5452841796875,8.975478172302246,3.5054850578308105,-0.3565305769443512
1766385755891246600,6.56224658203125,9.248259544372559,4.120440483093262,-0.2991028428077698
1766385755908209000,6.579208984375,10.188638687133789,4.00319242477417,-0.8590233325958252
1766385755925171200,6.596171142578125,9.822537422180176,4.5583271980285645,-1.1102696657180786
1766385755942133500,6.613133544921875,8.602197647094727,7.872386455535889,-1.215553879737854
1766385755959095800,6.630095703125,10.494919776916504,6.092126369476318,-0.10049854964017868
1766385755976058000,6.64705810546875,10.152746200561523,3.751945972442627,1.3184453248977661
1766385755993020400,6.6640205078125,10.593026161193848,4.027120590209961,1.552941918373108
1766385756009982700,6.680982666015625,10.576275825500488,4.704289436340332,0.8183453679084778
1766385756026945000,6.697945068359375,10.382457733154297,3.4408788681030273,0.5551348328590393
1766385756043907300,6.7149072265625,9.81535816192627,1.160519003868103,1.0719845294952393
1766385756060870000,6.731869873046875,10.332208633422852,0.9619147181510925,0.6364908218383789
1766385756077832200,6.748832275390625,11.054841041564941,1.153340458869934,-0.2919243574142456
1766385756094794500,6.76579443359375,10.284351348876953,2.4981069564819336,-0.8877372145652771
1766385756111756800,6.7827568359375,10.195816993713379,1.832902193069458,-1.4691931009292603
1766385756128719000,6.799718994140625,9.949356079101562,0.5072783827781677,-0.914058268070221
1766385756145681400,6.816681396484375,9.882357597351074,1.1653046607971191,-1.4931213855743408
1766385756162643700,6.833643798828125,9.324830055236816,2.809173822402954,-2.7804598808288574
1766385756179606000,6.85060595703125,10.009177207946777,3.4241292476654053,-4.498506546020508
1766385756196568300,6.867568359375,11.20080280303955,2.3234307765960693,-3.5605201721191406
1766385756213530600,6.884530517578125,11.921042442321777,0.9188438653945923,-2.651247501373291
1766385756230493000,6.901492919921875,11.191231727600098,0.6149554252624512,-2.313859462738037
1766385756247455500,6.91845556640625,10.411170959472656,0.8566305041313171,-2.3736801147460938
1766385756264417500,6.93541748046875,7.2335028648376465,8.260024070739746,-1.3615161180496216
1766385756281380000,6.952380126953125,10.51645565032959,0.9643075466156006,-1.1030912399291992
1766385756298342400,6.96934228515625,9.848857879638672,0.6867401003837585,-0.7752745151519775
1766385756315304700,6.9863046875,9.999606132507324,-1.0336993932724,-0.7585247755050659
1766385756332267000,7.00326708984375,8.963513374328613,4.4410786628723145,-1.2370892763137817
1766385756349229300,7.020229248046875,9.004191398620605,3.594019651412964,-1.4524433612823486
1766385756366191600,7.037191650390625,8.650053977966309,4.194618225097656,-2.2683959007263184
1766385756383154200,7.054154296875,8.803194046020508,5.000999450683594,-2.4119651317596436
1766385756400116500,7.071116455078125,9.647860527038574,4.555934429168701,-2.4765713214874268
1766385756417078800,7.088078857421875,9.293723106384277,3.139383316040039,-2.1918256282806396
1766385756434041000,7.105041015625,8.752944946289062,2.359323024749756,-1.7850457429885864
1766385756451003400,7.12200341796875,9.128618240356445,2.368894338607788,-1.6055840253829956
1766385756467965700,7.138965576171875,9.705288887023926,1.2945170402526855,-1.6893328428268433
1766385756484928300,7.15592822265625,10.246066093444824,1.423729419708252,-2.4646072387695312
1766385756501890300,7.172890380859375,9.76989459991455,2.778067111968994,-3.589233875274658
1766385756518852900,7.189852783203125,8.769695281982422,4.252045631408691,-3.94097900390625
1766385756535815200,7.206815185546875,9.186046600341797,4.175475597381592,-3.31884503364563
1766385756552777500,7.223777587890625,9.738788604736328,3.0005996227264404,-2.555534601211548
1766385756569739800,7.24073974609375,9.4660062789917,1.6941183805465698,-2.8929226398468018
1766385756586702000,7.2577021484375,9.317651748657227,1.1270195245742798,-4.192225456237793
1766385756603664600,7.27466455078125,7.7216386795043945,1.9621145725250244,-3.5820555686950684
1766385756620627000,7.291626953125,8.047062873840332,4.563112735748291,-3.1896326541900635
1766385756637589200,7.30858935546875,5.469992637634277,7.513463020324707,-2.675175666809082
1766385756654551600,7.325551513671875,5.170889854431152,6.075376510620117,-2.076970100402832
1766385756671513900,7.342513916015625,5.86002254486084,4.388436794281006,-2.400001049041748
1766385756688476200,7.35947607421875,5.79063081741333,5.290530681610107,-2.0506489276885986
1766385756705438700,7.376438720703125,5.625525951385498,5.565705299377441,-1.454836130142212
1766385756722401000,7.393401123046875,6.144768714904785,3.84765887260437,-2.282752752304077
1766385756739363300,7.41036328125,9.190832138061523,3.572484254837036,-4.651647090911865
1766385756756325600,7.42732568359375,9.336793899536133,8.154739379882812,-6.865008354187012
1766385756773288200,7.4442880859375,6.929614543914795,10.454241752624512,-5.936593055725098
1766385756790250500,7.46125048828125,5.120640277862549,9.501898765563965,-4.187439441680908
1766385756807212800,7.478212890625,4.235296249389648,7.877171993255615,-1.6510475873947144
1766385756824175000,7.495175048828125,3.8739798069000244,6.309873104095459,0.7082754969596863
1766385756841137400,7.512137451171875,3.7902309894561768,6.434299945831299,1.8089739084243774
1766385756858100000,7.529099853515625,2.9216363430023193,9.166903495788574,2.557927370071411
1766385756875062300,7.546062255859375,2.6273193359375,11.483156204223633,2.392822742462158
1766385756908987000,7.57998681640625,5.819344520568848,10.53799057006836,-1.1030912399291992
1766385756925949400,7.596949462890625,12.169896125793457,1.8472590446472168,0.9332008361816406
1766385756959874000,7.6308740234375,7.680960655212402,2.63449764251709,-6.379265308380127
1766385756976836600,7.647836669921875,6.845865726470947,4.041477680206299,-6.173482418060303
1766385756993799000,7.664798828125,7.307680130004883,3.7256247997283936,-5.84566593170166
1766385757010761200,7.68176123046875,8.3629150390625,3.864408493041992,-5.795416355133057
1766385757027723500,7.6987236328125,8.676374435424805,3.730410575866699,-4.529613494873047
1766385757044686000,7.71568603515625,8.6907320022583,3.6610186100006104,-3.6538400650024414
1766385757061648400,7.7326484375,8.140382766723633,3.177668571472168,-3.78544545173645
1766385757078610700,7.749610595703125,7.192824840545654,3.3308091163635254,-3.996013879776001
1766385757095573000,7.766572998046875,7.04207706451416,3.517449378967285,-3.90987229347229
1766385757112535600,7.78353564453125,7.70967435836792,3.500699520111084,-3.452843189239502
1766385757137979100,7.808979248046875,8.23848819732666,3.641875982284546,-2.8929226398468018
1766385757154941400,7.82594140625,9.083154678344727,2.9766714572906494,-3.452843189239502
1766385757171903700,7.84290380859375,8.925228118896484,2.991028308868408,-3.9385859966278076
1766385757188866300,7.8598662109375,8.63330364227295,3.85483717918396,-4.316651821136475
1766385757205828600,7.87682861328125,8.530412673950195,4.4961137771606445,-4.48414945602417
1766385757222791000,7.893791015625,8.317451477050781,5.575276851654053,-4.098905086517334
1766385757239753200,7.910753173828125,8.226524353027344,6.307480335235596,-4.1419758796691895
1766385757256715800,7.9277158203125,7.953742504119873,6.675975322723389,-4.376472473144531
1766385757273678000,7.944677978515625,7.621140003204346,6.764509677886963,-4.199403762817383
1766385757290640600,7.961640625,7.408178806304932,6.453442573547363,-3.8045880794525146
1766385757307603000,7.97860302734375,7.027719974517822,5.998806476593018,-3.3403804302215576
1766385757324565200,7.995565185546875,6.565905570983887,5.2043890953063965,-3.1752755641937256
1766385757341527800,8.01252783203125,6.3122663497924805,4.572684288024902,-3.005385160446167
1766385757358490000,8.029489990234374,6.5491557121276855,4.153940200805664,-3.036491870880127
1766385757375452400,8.046452392578125,7.427321434020996,3.957728624343872,-3.0077781677246094
1766385757392415000,8.0634150390625,8.066205024719238,5.359922885894775,-2.991028308868408
1766385757409377300,8.080377197265625,8.34138011932373,7.343572616577148,-3.500699520111084
1766385757426339600,8.097339599609375,8.233702659606934,4.455435752868652,-4.41475772857666
1766385757443302100,8.11430224609375,7.5708909034729,3.9625144004821777,-4.2209391593933105
1766385757460264400,8.131264404296875,7.568498134613037,3.8285162448883057,-3.656233072280884
1766385757477227000,8.14822705078125,8.405985832214355,3.9936211109161377,-3.8285162448883057
1766385757494189300,8.165189208984375,8.958727836608887,5.5345988273620605,-4.218546390533447
1766385757511151600,8.182151611328125,7.953742504119873,6.539584159851074,-4.455435752868652
1766385757528114200,8.1991142578125,7.0683979988098145,5.84566593170166,-4.314259052276611
1766385757545076500,8.216076416015625,6.589833736419678,4.783252239227295,-4.182653903961182
1766385757562039000,8.2330390625,6.4319071769714355,4.070191383361816,-3.996013879776001
1766385757579001300,8.25000146484375,6.826723098754883,3.4719855785369873,-4.151547431945801
1766385757595964000,8.2669638671875,6.97268533706665,3.620340585708618,-4.199403762817383
1766385757612926200,8.28392626953125,7.441678524017334,4.311866283416748,-4.438685894012451
1766385757629888500,8.300888427734375,7.295716285705566,4.587040901184082,-4.326223373413086
1766385757646851000,8.31785107421875,7.125825881958008,3.9194436073303223,-4.1036906242370605
1766385757663813400,8.3348134765625,7.04925537109375,4.048655986785889,-3.838087558746338
1766385757680776000,8.35177587890625,7.326822757720947,4.0319061279296875,-4.108476638793945
1766385757697738200,8.36873828125,7.561319351196289,4.357329845428467,-4.2831525802612305
1766385757714700800,8.38570068359375,7.594819068908691,4.907679080963135,-4.1419758796691895
1766385757731663000,8.4026630859375,7.659425258636475,5.312066078186035,-3.8045880794525146
1766385757748625700,8.419625732421874,7.800601959228516,4.768895626068115,-3.601198196411133
1766385757765588000,8.436587890625,7.530212879180908,4.7234320640563965,-3.90987229347229
1766385757782550500,8.453550537109376,7.226324558258057,4.962714195251465,-4.627718925476074
1766385757799512800,8.470512939453124,7.178467750549316,4.761716842651367,-5.096712112426758
1766385757816475400,8.487475341796875,8.236095428466797,3.8428730964660645,-5.173282623291016
1766385757833437700,8.504437744140626,8.810373306274414,3.342773199081421,-4.098905086517334
1766385757850400000,8.52139990234375,8.279166221618652,3.1680972576141357,-3.060420274734497
1766385757867362600,8.538362548828125,7.015756130218506,3.053241729736328,-2.2133610248565674
1766385757884324900,8.555324951171874,6.64486837387085,2.7182464599609375,-1.825723648071289
1766385757901287400,8.572287353515625,6.0466628074646,2.964707374572754,-1.0408778190612793
1766385757918249700,8.589249755859376,6.510870456695557,3.170490026473999,-0.6436693072319031
1766385757935212300,8.60621240234375,6.977470874786377,3.9984066486358643,0.1866401731967926
1766385757952174600,8.623174560546875,7.676175117492676,4.046263217926025,0.14835500717163086
1766385757969137200,8.64013720703125,8.176275253295898,3.6634113788604736,0.1052841991186142
1766385757986099700,8.657099609375,9.116654396057129,3.6681971549987793,0.2584248483181
1766385758003062000,8.67406201171875,8.58784008026123,4.797609329223633,0.13639089465141296
1766385758020024600,8.691024658203125,8.420342445373535,5.623133182525635,-0.8638089895248413
1766385758036987000,8.70798681640625,8.583054542541504,5.903093338012695,-1.2562319040298462
1766385758053949400,8.724949462890624,9.810572624206543,5.19960355758667,-0.8350951075553894
1766385758070911700,8.741911865234375,11.112268447875977,3.88594388961792,-0.3086741268634796
1766385758087874300,8.758874267578125,10.717453002929688,3.7663028240203857,0.2847459018230438
1766385758104836600,8.775836669921874,10.25324535369873,4.271188259124756,0.07657032459974289
1766385758121799200,8.792799072265625,9.839286804199219,4.249652862548828,-0.5790630578994751
1766385758138761500,8.809761474609376,8.913264274597168,3.7974095344543457,-0.3445664644241333
1766385758155724000,8.82672412109375,9.212367057800293,2.7828526496887207,-0.014356935396790504
1766385758172686300,8.843686279296875,9.77707290649414,2.730210542678833,0.23210379481315613
1766385758189649000,8.86064892578125,9.781859397888184,3.2781670093536377,0.275174617767334
1766385758206611500,8.877611572265625,10.009177207946777,2.8139593601226807,-0.009571290574967861
1766385758223573800,8.89457373046875,9.592825889587402,1.9764715433120728,0.1459621787071228
1766385758240536300,8.911536376953125,10.454241752624512,0.7585247755050659,-0.4259224236011505
1766385758257498600,8.92849853515625,11.174481391906738,-0.03349951654672623,-0.5120640397071838
1766385758274461200,8.945461181640624,11.877971649169922,4.479363918304443,-1.7419748306274414
1766385758291423500,8.962423583984375,7.204789161682129,8.609375953674316,1.5625132322311401
1766385758308386000,8.979385986328126,8.774480819702148,5.663811206817627,3.601198196411133
1766385758325348400,8.996348388671874,10.774880409240723,0.5000999569892883,0.5694918036460876
1766385758342311000,9.013310791015625,9.678967475891113,1.919043779373169,0.24646073579788208
1766385758359273500,9.0302734375,9.868000984191895,1.332802176475525,0.22013968229293823
1766385758376235800,9.04723583984375,7.9657063484191895,1.526620864868164,0.3924229145050049
1766385758393198300,9.0641982421875,9.832108497619629,0.2632105052471161,-0.7824530005455017
1766385758410161000,9.081160888671874,12.112467765808105,-0.7441678643226624,-0.7441678643226624
1766385758427123200,9.098123291015625,10.51645565032959,0.8614161610603333,-0.23449662327766418
1766385758444085800,9.115085693359376,9.439684867858887,1.7850457429885864,0.45224347710609436
1766385758461048000,9.132048095703125,9.020941734313965,0.7489534616470337,0.28953152894973755
1766385758478010600,9.1490107421875,9.152546882629395,-1.4476577043533325,1.0671988725662231
1766385758494973200,9.16597314453125,9.714859962463379,-0.6221339106559753,-0.31106695532798767
1766385758511935500,9.182935546875,11.337193489074707,1.9046868085861206,-1.911865234375
1766385758528898000,9.19989794921875,10.1814603805542,2.8666014671325684,-0.16749759018421173
1766385758545860400,9.2168603515625,10.332208633422852,2.68953275680542,-0.6221339106559753
1766385758562823000,9.233822998046875,10.916056632995605,1.038485050201416,-1.098305583000183
1766385758579785500,9.250785400390624,7.963313579559326,0.5359922647476196,0.727418065071106
1766385758596747800,9.267747802734375,7.283751964569092,1.4644074440002441,2.2444677352905273
1766385758613710300,9.28471044921875,7.6737823486328125,-0.15314064919948578,1.4644074440002441
1766385758630673000,9.3016728515625,8.841479301452637,-2.8809585571289062,0.34695929288864136
1766385758647635200,9.31863525390625,9.90149974822998,-6.565905570983887,-1.038485050201416
1766385758664597800,9.33559765625,13.435699462890625,17.608781814575195,-8.059026718139648
1766385758681560300,9.352560302734375,12.1866455078125,1.2131611108779907,-0.5024927258491516
1766385758698522600,9.369522705078126,10.04267692565918,0.2967100143432617,-0.5623133182525635
1766385758715485200,9.386485107421874,9.647860527038574,3.1800613403320312,1.832902193069458
1766385758732447500,9.403447509765625,8.812766075134277,3.0628130435943604,2.68953275680542
1766385758749410000,9.42041015625,8.073383331298828,3.4002010822296143,2.5770699977874756
1766385758766372600,9.43737255859375,8.23848819732666,1.947757601737976,1.1318050622940063
1766385758783335200,9.454335205078126,9.750752449035645,2.495713949203491,-0.22492532432079315
1766385758800297500,9.47129736328125,10.796415328979492,1.6223337650299072,-2.1415762901306152
1766385758817260000,9.488260009765625,9.430113792419434,2.1774685382843018,-0.8733802437782288
1766385758834222600,9.50522265625,9.820143699645996,0.8470591902732849,-1.4093725681304932
1766385758851185000,9.522184814453125,9.848857879638672,1.397408366203308,-0.8973084688186646
1766385758868147500,9.5391474609375,9.521040916442871,2.0267207622528076,0.004785645287483931
1766385758885110000,9.556110107421874,9.183652877807617,2.2707886695861816,0.8949156403541565
1766385758902072300,9.573072265625,9.32722282409668,3.1274192333221436,0.42352959513664246
1766385758919035000,9.590034912109376,9.425328254699707,1.557727575302124,0.6173482537269592
1766385758935997400,9.60699755859375,9.040083885192871,3.3308091163635254,1.2705888748168945
1766385758952959700,9.623959716796875,7.893921852111816,2.8689942359924316,1.8759729862213135
1766385758969922000,9.640922119140624,8.8438720703125,2.8354947566986084,1.3591232299804688
1766385758986884600,9.657884521484375,9.891928672790527,3.397808074951172,0.16749759018421173
1766385759003847200,9.67484716796875,9.332008361816406,2.1439690589904785,-0.4139583110809326
1766385759020809700,9.691809814453125,9.19561767578125,1.9214365482330322,-0.7896314859390259
1766385759037772000,9.70877197265625,8.975478172302246,2.431107759475708,0.17228323221206665
1766385759054734600,9.725734619140624,9.91107177734375,1.7874385118484497,-0.04307080805301666
1766385759071697200,9.742697265625,8.4562349319458,3.1920254230499268,0.698704183101654
1766385759088659500,9.759659423828126,7.743174076080322,2.809173822402954,0.8303094506263733
1766385759105622000,9.7766220703125,7.9657063484191895,2.2372891902923584,0.7704889178276062
1766385759122584600,9.79358447265625,9.078369140625,3.572484254837036,0.6556333899497986
1766385759139547100,9.810547119140624,9.712467193603516,2.2468605041503906,0.45942193269729614
1766385759156509400,9.827509521484375,9.863214492797852,2.526820659637451,0.3445664644241333
1766385759173472000,9.844471923828126,8.62612533569336,2.0817556381225586,1.5792629718780518
1766385759190434600,9.8614345703125,7.685746192932129,1.7371892929077148,1.129412293434143
1766385759207396900,9.87839697265625,10.743773460388184,1.9310078620910645,0.2392822653055191
1766385759224359400,9.895359375,12.949955940246582,-1.9812572002410889,-0.9092726111412048
1766385759241322000,9.912322021484375,9.001798629760742,-2.5363919734954834,0.3326023519039154
1766385759258284300,9.9292841796875,6.733402729034424,10.547562599182129,2.3952155113220215
1766385759275246800,9.946246826171874,9.473184585571289,4.453042984008789,-0.035892341285943985
1766385759292209400,9.96320947265625,11.184053421020508,1.373480200767517,-1.801795482635498
1766385759309172000,9.980171875,10.490134239196777,2.108076810836792,-0.3278166949748993
1766385759326134300,9.99713427734375,9.882357597351074,3.146561861038208,1.9381862878799438
1766385759343096800,10.014096923828125,9.631111145019531,2.1678972244262695,1.9812572002410889
1766385759360059400,10.031059326171874,8.901300430297852,0.15314064919948578,-0.01196411345154047
1766385759377021700,10.048021728515625,9.767501831054688,1.3208380937576294,-0.8566305041313171
1766385759393984300,10.064984375,9.738788604736328,-1.887937068939209,0.8015955686569214
1766385759410946800,10.08194677734375,8.513663291931152,4.986642360687256,1.25144624710083
1766385759427909400,10.098909423828125,9.207581520080566,3.0340991020202637,2.172683000564575
1766385759444872000,10.115871826171874,12.081361770629883,2.4502503871917725,0.3445664644241333
1766385759461834200,10.132834228515625,11.109875679016113,6.6831536293029785,-1.5050854682922363
1766385759478796800,10.149796875,10.971092224121094,4.218546390533447,-1.191625714302063
1766385759495759400,10.16675927734375,7.207181930541992,3.2925238609313965,2.311466693878174
1766385759512721700,10.1837216796875,7.853243827819824,-0.04785645380616188,1.1126625537872314
1766385759529684200,10.200684326171874,9.131011009216309,1.892722725868225,-1.0360921621322632
1766385759546646800,10.217646728515625,8.535198211669922,-0.6364908218383789,-0.4019941985607147
1766385759563609300,10.234609375,9.300901412963867,0.33738797903060913,1.4189438819885254
1766385759580571600,10.251571533203125,9.77707290649414,3.5054850578308105,1.1748759746551514
1766385759597534200,10.2685341796875,9.020941734313965,2.1200408935546875,0.44745782017707825
1766385759614496800,10.285496826171874,11.294122695922852,1.5146567821502686,0.040677983313798904
1766385759631459300,10.302459228515625,10.817951202392578,3.014956474304199,2.53399920463562
1766385759648421600,10.319421630859376,10.686346054077148,1.6965112686157227,0.9834501147270203
1766385759665384200,10.33638427734375,8.95394229888916,1.435693621635437,1.3567304611206055
1766385759682346800,10.3533466796875,9.760323524475098,1.820937991142273,-1.3567304611206055
1766385759699309300,10.370309326171874,10.482955932617188,1.5146567821502686,-0.24167509377002716
1766385759716271600,10.387271728515625,10.631311416625977,1.6869399547576904,0.7226324677467346
1766385759733234200,10.404234130859376,10.959127426147461,1.6342978477478027,0.3158525824546814
1766385759750196700,10.42119677734375,9.387042999267578,1.4763715267181396,0.6843472719192505
1766385759767159300,10.4381591796875,9.07119083404541,1.215553879737854,0.7992027401924133
1766385759784121600,10.45512158203125,9.097511291503906,1.2562319040298462,0.5958128571510315
1766385759801084200,10.472084228515625,9.920642852783203,1.4883357286453247,0.2967100143432617
1766385759818046700,10.489046630859375,9.41336441040039,1.6534404754638672,0.5958128571510315
1766385759835009300,10.50600927734375,10.040284156799316,1.581655740737915,0.6436693072319031
1766385759851971600,10.5229716796875,9.702896118164062,1.155733346939087,1.1126625537872314
1766385759868934100,10.53993408203125,9.142974853515625,2.383251428604126,0.2919243574142456
1766385759885896700,10.556896728515625,9.635896682739258,1.7563318014144897,1.038485050201416
1766385759902859300,10.573859375,9.66221809387207,1.2299108505249023,1.5361921787261963
1766385759919821800,10.59082177734375,9.81535816192627,3.2997024059295654,0.7154539823532104
1766385759936784100,10.6077841796875,10.301101684570312,0.6915257573127747,0.6197410821914673
1766385759953746700,10.62474658203125,10.021141052246094,2.871387243270874,1.1485549211502075
1766385759970709200,10.641709228515625,9.214759826660156,1.7324036359786987,1.7563318014144897
1766385759987671800,10.658671875,9.231510162353516,1.4404792785644531,-0.04785645380616188
1766385760004634400,10.67563427734375,9.389435768127441,1.5433706045150757,-0.8183453679084778
1766385760021596700,10.6925966796875,9.595218658447266,2.517249345779419,0.2225325107574463
1766385760038559200,10.709559326171876,10.030712127685547,2.682354211807251,0.7226324677467346
1766385760055521800,10.726521728515625,9.140582084655762,1.9573289155960083,1.2801600694656372
1766385760072484000,10.743484130859375,8.74337387084961,2.0338993072509766,0.727418065071106
1766385760089446700,10.76044677734375,9.743574142456055,2.196611166000366,-0.4905286431312561
1766385760106409200,10.7774091796875,9.817750930786133,2.2851455211639404,0.3158525824546814
1766385760123371800,10.794371826171876,9.564111709594727,2.50289249420166,0.6580262184143066
1766385760140334300,10.811334228515625,8.48734188079834,2.352144718170166,0.12921242415905
1766385760157296600,10.828296630859375,8.25523853302002,2.0482561588287354,-0.02632104977965355
1766385760174259200,10.84525927734375,8.23848819732666,2.242074728012085,-0.31345975399017334
1766385760191221800,10.8622216796875,8.085348129272461,2.258824586868286,-0.02632104977965355
1766385760208184300,10.879184326171876,8.185846328735352,1.801795482635498,1.1389836072921753
1766385760225147000,10.89614697265625,11.3778715133667,1.6031911373138428,0.07657032459974289
1766385760242109200,10.913109130859375,10.325029373168945,1.7754744291305542,0.550349235534668
1766385760259071700,10.93007177734375,9.714859962463379,1.9214365482330322,0.6532405614852905
1766385760276034300,10.947034423828125,10.542776107788086,2.4191436767578125,0.48574298620224
1766385760292996900,10.963996826171876,11.315658569335938,2.3401806354522705,0.4307080805301666
1766385760309959400,10.98095947265625,10.236495018005371,2.225325107574463,1.062413215637207
1766385760326921700,10.997921630859375,9.353543281555176,2.258824586868286,0.4043870270252228
1766385760343884300,11.01488427734375,9.312865257263184,2.3497519493103027,0.9068797826766968
1766385760360846800,11.031846923828125,8.781659126281738,2.6177480220794678,0.7896314859390259
1766385760377809400,11.048809326171876,9.525827407836914,2.4263222217559814,0.27756741642951965
1766385760394772000,11.06577197265625,10.073782920837402,2.4502503871917725,0.37088751792907715
1766385760411734300,11.082734375,9.616754531860352,2.3641088008880615,1.2897313833236694
1766385760428696800,11.09969677734375,8.583054542541504,2.4670002460479736,0.3158525824546814
1766385760445659400,11.116659423828125,8.051848411560059,2.5603201389312744,0.3445664644241333
1766385760462622000,11.1336220703125,9.308079719543457,2.7182464599609375,0.5790630578994751
1766385760479584500,11.15058447265625,8.803194046020508,2.486142635345459,0.31345975399017334
1766385760496546800,11.167546875,8.209774017333984,2.4095723628997803,0.2153540402650833
1766385760513509400,11.18450927734375,9.796216011047363,2.4358935356140137,0.5910272002220154
1766385760530472000,11.201471923828125,8.925228118896484,2.981456995010376,1.612762451171875
1766385760547434500,11.2184345703125,9.906285285949707,1.4620146751403809,-1.3040883541107178
1766385760564397000,11.23539697265625,10.210174560546875,2.3569302558898926,0.42352959513664246
1766385760581359600,11.252359619140625,9.542576789855957,2.289931297302246,0.363709032535553
1766385760598322000,11.269322021484374,8.915657043457031,2.2157537937164307,0.4307080805301666
1766385760615284500,11.286284423828125,9.463613510131836,2.289931297302246,0.5335994362831116
1766385760632247000,11.3032470703125,9.796216011047363,2.328216314315796,0.605384111404419
1766385760649209600,11.320209716796874,9.43489933013916,2.313859462738037,0.6197410821914673
1766385760666172200,11.337172119140625,9.34157943725586,2.2468605041503906,0.605384111404419
1766385760683134500,11.354134521484376,9.657432556152344,2.218146562576294,0.48813581466674805
1766385760700097000,11.371096923828125,9.083154678344727,2.297109842300415,0.5599204897880554
1766385760717059600,11.3880595703125,9.226723670959473,2.4191436767578125,0.5718846321105957
1766385760734022100,11.405022216796874,8.078168869018555,2.3473589420318604,0.41874396800994873
1766385760750984700,11.421984619140625,6.10169792175293,2.0410776138305664,0.5838487148284912
1766385760767947300,11.438947265625,11.722437858581543,2.012363910675049,0.34217363595962524
1766385760784909600,11.45590966796875,9.387042999267578,2.117648124694824,0.6556333899497986
1766385760801872100,11.4728720703125,10.899307250976562,1.9716858863830566,0.31345975399017334
1766385760818834700,11.489834716796874,9.33440113067627,2.4670002460479736,1.3639088869094849
1766385760835797200,11.50679736328125,8.461020469665527,2.1918256282806396,1.1365907192230225
1766385760852759800,11.523759765625,8.944371223449707,2.1655044555664062,0.6819544434547424
1766385760869722400,11.540722412109375,8.793622970581055,1.8975083827972412,0.5455635786056519
1766385760886684700,11.5576845703125,8.96829891204834,1.820937991142273,0.14117653667926788
1766385760903647200,11.574647216796874,10.02592658996582,1.9836499691009521,0.5264210104942322
1766385760920609800,11.59160986328125,10.571490287780762,2.2995026111602783,0.6293123364448547
1766385760937572400,11.608572265625,10.908878326416016,2.043470621109009,-0.17706887423992157
1766385760954535000,11.625534912109375,9.949356079101562,1.8975083827972412,0.16749759018421173
1766385760971497200,11.642497314453125,8.82233715057373,2.2707886695861816,0.0933200865983963
1766385760988459800,11.659459716796874,8.774480819702148,1.8640087842941284,0.5072783827781677
1766385761005422300,11.67642236328125,10.626524925231934,1.7156537771224976,-0.23688943684101105
1766385761022385000,11.693385009765626,11.83011531829834,1.404586911201477,-0.9068797826766968
1766385761039347500,11.710347412109375,9.7005033493042,2.366501569747925,0.5958128571510315
1766385761056309800,11.727309814453125,8.805587768554688,2.3258235454559326,0.7010970115661621
1766385761073272300,11.744272216796874,8.3629150390625,1.7395820617675781,1.0408778190612793
1766385761090235000,11.76123486328125,9.76989459991455,1.9692929983139038,-0.6915257573127747
1766385761107197400,11.778197509765626,10.344172477722168,2.0482561588287354,-0.1818545162677765
1766385761124160000,11.795159912109375,9.573683738708496,2.196611166000366,0.0023928226437419653
1766385761141122600,11.81212255859375,9.781859397888184,2.1894326210021973,0.39960137009620667
1766385761158084900,11.8290849609375,8.413164138793945,2.1918256282806396,0.5479564070701599
1766385761175047400,11.84604736328125,9.298508644104004,2.2396819591522217,-0.0023928226437419653
1766385761192010000,11.863010009765626,9.707681655883789,2.4981069564819336,0.0023928226437419653
1766385761208972500,11.87997265625,9.858428955078125,2.447857618331909,0.1339980661869049
1766385761225935000,11.89693505859375,10.949556350708008,2.4885356426239014,0.08135596662759781
1766385761242897700,11.913897705078124,10.688738822937012,2.1918256282806396,0.5886343717575073
1766385761259860000,11.93085986328125,11.650653839111328,2.6081767082214355,0.9260223507881165
1766385761276822500,11.947822509765626,10.418350219726562,2.926422119140625,0.6580262184143066
1766385761293785000,11.96478515625,4.110869407653809,2.014756679534912,-0.1339980661869049
1766385761310747600,11.98174755859375,-2.493321180343628,2.9312076568603516,-0.8709874153137207
1766385761327710200,11.998710205078124,8.685946464538574,2.462214469909668,-0.1746760457754135
1766385761344672800,12.0156728515625,19.68575096130371,2.4837498664855957,0.9188438653945923
1766385761361635000,12.032635009765626,16.295122146606445,2.5148565769195557,0.8566305041313171
1766385761378597600,12.04959765625,6.070590972900391,2.550748825073242,0.9954141974449158
1766385761395560200,12.066560302734375,5.276174068450928,2.287538528442383,0.729810893535614
1766385761412522800,12.083522705078124,11.241480827331543,2.4287149906158447,0.4977070987224579
1766385761429485300,12.1004853515625,11.60279655456543,2.641676187515259,0.5240281820297241
1766385761454929200,12.12592919921875,7.467999458312988,2.5435705184936523,0.4091726839542389
1766385761471891700,12.1428916015625,10.169496536254883,2.50289249420166,0.35892340540885925
1766385761488854000,12.15985400390625,10.25324535369873,2.50289249420166,0.23449662327766418
1766385761505816600,12.176816650390625,8.583054542541504,2.4263222217559814,0.5048855543136597
1766385761522779100,12.193779052734374,10.212567329406738,2.4358935356140137,0.5024927258491516
1766385761539741700,12.21074169921875,9.336793899536133,2.579462766647339,0.4977070987224579
1766385761556704300,12.227704345703126,8.087740898132324,2.548356056213379,0.5838487148284912
1766385761573666800,12.244666748046875,9.573683738708496,2.4526431560516357,0.37806597352027893
1766385761590629000,12.261629150390625,10.001998901367188,2.4023938179016113,0.42831525206565857
1766385761607591700,12.278591796875,9.607182502746582,2.2947168350219727,0.4785645306110382
1766385761624554200,12.29555419921875,9.221938133239746,2.2636101245880127,0.42352959513664246
1766385761641516800,12.312516845703126,9.571290969848633,2.4598217010498047,0.4498506486415863
1766385761658479400,12.329479248046875,9.805787086486816,2.5292134284973145,0.39960137009620667
1766385761675442000,12.34644189453125,10.02592658996582,2.581855535507202,0.5934200286865234
1766385761692404500,12.363404541015624,9.68375301361084,2.550748825073242,0.37088751792907715
1766385761709366800,12.38036669921875,9.585647583007812,2.321038007736206,-0.26081767678260803
1766385761726329300,12.397329345703126,8.975478172302246,2.5292134284973145,-0.07657032459974289
1766385761743292000,12.4142919921875,9.877572059631348,2.6536402702331543,0.004785645287483931
1766385761760254500,12.43125439453125,10.246066093444824,2.7421748638153076,-0.14117653667926788
1766385761777217000,12.448217041015624,8.707481384277344,2.6703901290893555,-0.37088751792907715
1766385761794179600,12.4651796875,8.877371788024902,3.0795626640319824,-0.02153540402650833
1766385761811142000,12.482141845703126,8.250452041625977,3.0484559535980225,-0.22971096634864807
1766385761828104400,12.4991044921875,8.544769287109375,3.122633457183838,-0.2512463629245758
1766385761845067000,12.51606689453125,8.554341316223145,2.9479575157165527,-0.07896314561367035
1766385761862029600,12.533029541015624,9.34157943725586,2.5914268493652344,-0.5335994362831116
1766385761878992100,12.5499921875,9.114261627197266,2.4909284114837646,-0.4211367964744568
1766385761895954700,12.56695458984375,9.272188186645508,2.376072883605957,-0.2871387302875519
1766385761912917200,12.583917236328125,9.954142570495605,2.612962245941162,0.03349951654672623
1766385761929879600,12.600879638671875,9.324830055236816,2.682354211807251,0.035892341285943985
1766385761946842000,12.617842041015624,9.734002113342285,2.7589244842529297,0.23449662327766418
1766385761963804700,12.6348046875,9.863214492797852,2.723032236099243,0.19621145725250244
1766385761980767200,12.651767333984376,9.66939640045166,2.6249263286590576,0.2727817893028259
1766385761997729800,12.668729736328125,9.128618240356445,2.526820659637451,0.18903298676013947
1766385762014692400,12.6856923828125,9.994820594787598,2.6392834186553955,0.4307080805301666
1766385762031654700,12.702654541015624,8.647661209106445,2.715853691101074,0.6101697683334351
1766385762048617200,12.7196171875,9.052047729492188,2.847458839416504,0.5670989751815796
1766385762065579800,12.736579833984376,9.865608215332031,2.9455647468566895,0.22013968229293823
1766385762082542300,12.753542236328125,8.831908226013184,2.8737800121307373,0.1866401731967926
1766385762099505000,12.7705048828125,8.02791976928711,2.7493531703948975,-0.04546362906694412
1766385762116467500,12.787467529296874,9.025727272033691,2.3234307765960693,-0.24406790733337402
1766385762133430000,12.804429931640625,9.872786521911621,2.837887763977051,-0.5814558863639832
1766385762150392300,12.821392333984376,9.087940216064453,3.036491870880127,-0.15074782073497772
1766385762167355000,12.83835498046875,8.949156761169434,2.4430718421936035,-0.3038884699344635
1766385762184317400,12.8553173828125,9.08554744720459,3.390629768371582,0.519242525100708
1766385762201280000,12.872280029296874,10.234102249145508,2.720639228820801,0.8207381963729858
1766385762218242600,12.88924267578125,8.96112060546875,2.964707374572754,0.576670229434967
1766385762235205000,12.906205078125,8.925228118896484,2.495713949203491,-0.31106695532798767
1766385762252167400,12.92316748046875,8.910871505737305,2.991028308868408,-0.5216353535652161
1766385762269130000,12.9401298828125,9.06401252746582,3.1968109607696533,0.059820566326379776
1766385762286092500,12.957092529296874,9.523433685302734,2.9240293502807617,0.2632105052471161
1766385762303055000,12.97405517578125,10.16710376739502,1.8711873292922974,-0.05024927482008934
1766385762320017700,12.991017578125,9.726823806762695,2.416750907897949,-0.1866401731967926
1766385762336980000,13.00797998046875,9.370293617248535,2.792423963546753,0.30628129839897156
1766385762353942500,13.024942626953125,9.501898765563965,2.8522446155548096,0.3206382393836975
1766385762370905000,13.041905029296874,9.667003631591797,1.5170495510101318,-0.08853443711996078
1766385762387867600,13.05886767578125,9.714859962463379,0.9212366938591003,1.007378339767456
1766385762404830200,13.075830322265626,9.53061294555664,4.18983268737793,0.3852444589138031
1766385762421792800,13.092792724609374,9.214759826660156,3.115455150604248,-1.6606189012527466
1766385762438755000,13.109755126953125,8.94676399230957,2.6297121047973633,-0.5670989751815796
1766385762455717600,13.126717529296876,9.753145217895508,2.9312076568603516,-0.20338992774486542
1766385762472680200,13.14368017578125,9.69093132019043,1.5314065217971802,0.23210379481315613
1766385762489642800,13.160642822265626,9.384650230407715,1.3878371715545654,0.3900300860404968
1766385762506605300,13.177605224609374,9.30329418182373,2.486142635345459,-0.49292147159576416
1766385762523567900,13.19456787109375,9.480362892150879,3.4791641235351562,-1.1676974296569824
1766385762540530200,13.2115302734375,9.45164966583252,2.297109842300415,-0.6293123364448547
1766385762557492700,13.22849267578125,9.851250648498535,2.146361827850342,0.39481574296951294
1766385762574455300,13.245455322265625,9.317651748657227,0.5670989751815796,0.4211367964744568
1766385762591417900,13.26241796875,9.882357597351074,5.111069202423096,-0.064606212079525
1766385762608380400,13.27938037109375,8.575876235961914,2.581855535507202,0.05742774158716202
1766385762625342700,13.2963427734375,8.944371223449707,2.2755744457244873,0.3397808074951172
1766385762642305300,13.31330517578125,9.540184020996094,2.4335005283355713,0.2799602448940277
1766385762659267800,13.330267822265625,9.025727272033691,3.2853455543518066,-0.19621145725250244
1766385762676230400,13.34723046875,8.293522834777832,1.7395820617675781,-0.0933200865983963
1766385762693192700,13.364192626953125,8.851051330566406,2.0315065383911133,0.1986042857170105
1766385762710155300,13.3811552734375,9.628718376159668,-1.3160524368286133,-0.5120640397071838
1766385762727117800,13.398117919921875,10.96630573272705,4.823930263519287,0.24406790733337402
1766385762744080400,13.415080322265625,9.616754531860352,7.9728851318359375,-0.275174617767334
1766385762761043000,13.43204296875,8.22413158416748,2.2995026111602783,0.04307080805301666
1766385762778005200,13.449005126953125,9.269794464111328,1.2993026971817017,0.17228323221206665
1766385762794967800,13.4659677734375,9.260223388671875,3.955335855484009,0.34217363595962524
1766385762811930400,13.482930419921875,9.049654960632324,2.943171739578247,0.4211367964744568
1766385762828892700,13.499892578125,8.50169849395752,2.56510591506958,0.10289137065410614
1766385762845855200,13.516855224609374,8.394021987915039,1.8089739084243774,0.10289137065410614
1766385762862817800,13.53381787109375,9.509077072143555,4.110869407653809,0.21296121180057526
1766385762879780400,13.5507802734375,9.990034103393555,3.345165967941284,0.3517449200153351
1766385762896743000,13.567742919921875,9.540184020996094,2.9718856811523438,0.29431718587875366
1766385762913705200,13.584705322265625,9.389435768127441,3.3164522647857666,0.4091726839542389
1766385762930667800,13.601667724609374,8.987442016601562,3.517449378967285,0.5383850932121277
1766385762947630300,13.61863037109375,9.229117393493652,4.158725738525391,1.397408366203308
1766385762964593000,13.635593017578126,9.832108497619629,2.641676187515259,-0.6269195079803467
1766385762981555200,13.65255517578125,9.834501266479492,2.1032910346984863,-0.6005984544754028
1766385762998517800,13.669517822265625,9.291330337524414,2.830709218978882,0.6532405614852905
1766385763023961600,13.694961669921875,8.82233715057373,2.4765713214874268,0.038285162299871445
1766385763040924200,13.711924072265624,8.86062240600586,3.1680972576141357,0.12203395366668701
1766385763057886500,13.728886474609375,9.073583602905273,2.6632115840911865,-0.1459621787071228
1766385763074849000,13.74584912109375,9.023334503173828,3.0005996227264404,0.31824541091918945
1766385763091811600,13.7628115234375,9.650253295898438,2.3162522315979004,-0.4498506486415863
1766385763108774100,13.779774169921875,10.147960662841797,2.4406790733337402,-0.35413774847984314
1766385763125736400,13.796736328125,9.212367057800293,2.5052852630615234,1.552941918373108
1766385763142699000,13.813698974609375,8.63330364227295,3.105883836746216,0.5647061467170715
1766385763159661600,13.83066162109375,10.832307815551758,2.8905298709869385,0.05503492057323456
1766385763176624000,13.8476240234375,8.70508861541748,2.9551360607147217,0.2225325107574463
1766385763193586700,13.864586669921875,8.898907661437988,3.0029923915863037,0.3613162338733673
1766385763210549000,13.881549072265624,9.755537986755371,2.9790642261505127,0.3900300860404968
1766385763227512300,13.89851220703125,9.109476089477539,2.9383862018585205,0.44027936458587646
1766385763244474000,13.91547412109375,9.272188186645508,2.9383862018585205,0.4331009089946747
1766385763261436700,13.932436767578125,9.22433090209961,2.964707374572754,0.4091726839542389
1766385763278399000,13.94939892578125,9.193224906921387,3.0029923915863037,0.41156548261642456
1766385763295361500,13.966361572265624,9.29611587524414,3.0245277881622314,0.34695929288864136
1766385763312324000,13.983323974609375,9.28893756866455,2.9694929122924805,0.349352091550827
1766385763329286700,14.00028662109375,9.262616157531738,2.9694929122924805,0.3397808074951172
1766385763346249000,14.0172490234375,9.229117393493652,2.981456995010376,0.35892340540885925
1766385763363211500,14.03421142578125,9.121439933776855,2.9862427711486816,0.3397808074951172
1766385763380174000,14.051174072265624,9.20997428894043,2.998206853866577,0.059820566326379776
1766385763397136600,14.06813671875,9.19561767578125,2.895315408706665,0.2727817893028259
1766385763414099000,14.085098876953126,9.245866775512695,2.775674343109131,0.2273181527853012
1766385763431061500,14.1020615234375,9.415757179260254,2.641676187515259,0.20338992774486542
1766385763448024000,14.119024169921875,9.382257461547852,2.5459632873535156,0.01196411345154047
1766385763464986600,14.135986572265624,9.415757179260254,2.500499725341797,0.12921242415905
1766385763481949000,14.152948974609375,9.523433685302734,2.3856441974639893,0.08614161610603333
1766385763498911500,14.169911376953126,9.391828536987305,2.2612173557281494,0.07657032459974289
1766385763515874000,14.1868740234375,9.54496955871582,2.163111686706543,-0.064606212079525
1766385763532836600,14.203836669921875,9.128618240356445,2.148754835128784,-0.23449662327766418
1766385763549799000,14.220798828125,9.492327690124512,2.060220241546631,0.05024927482008934
1766385763566761500,14.237761474609375,9.528220176696777,2.1343977451324463,0.14117653667926788
1766385763583724000,14.25472412109375,9.509077072143555,2.3234307765960693,0.14117653667926788
1766385763600686300,14.271686279296874,9.645467758178711,2.469393014907837,0.32542386651039124
1766385763617649000,14.28864892578125,9.418149948120117,2.495713949203491,0.2871387302875519
1766385763634611500,14.305611572265626,9.477970123291016,2.4023938179016113,0.18424734473228455
1766385763651574000,14.322573974609375,9.260223388671875,2.517249345779419,0.38285163044929504
1766385763668536300,14.339536376953125,9.274580955505371,2.6560330390930176,0.39960137009620667
1766385763685499000,14.356498779296874,9.042476654052734,2.7589244842529297,0.28953152894973755
1766385763702461400,14.37346142578125,9.104690551757812,2.770888566970825,0.2225325107574463
1766385763719424000,14.390424072265626,9.688538551330566,2.462214469909668,0.26560330390930176
1766385763736386600,14.407386474609375,9.487542152404785,2.368894338607788,0.7657032608985901
1766385763753348900,14.424348876953125,9.023334503173828,2.4765713214874268,0.6364908218383789
1766385763770311400,14.4413115234375,9.53061294555664,2.675175666809082,0.33499518036842346
1766385763787273700,14.458273681640625,9.31047248840332,2.9240293502807617,-0.07178468257188797
1766385763804236300,14.475236328125,9.547362327575684,2.806781053543091,0.19621145725250244
1766385763821198800,14.49219873046875,9.363115310668945,2.912065267562866,0.30628129839897156
1766385763838161400,14.509161376953125,9.162117958068848,2.9599215984344482,0.35892340540885925
1766385763855124000,14.5261240234375,9.193224906921387,3.005385160446167,0.46420758962631226
1766385763872086300,14.543086181640625,8.891729354858398,2.8211379051208496,0.040677983313798904
1766385763889048800,14.560048828125,9.083154678344727,2.854637384414673,0.4546363055706024
1766385763906011400,14.577011474609375,9.384650230407715,2.8426733016967773,0.5694918036460876
1766385763922973700,14.5939736328125,9.372686386108398,3.1824541091918945,0.9643075466156006
1766385763939936300,14.610936279296874,9.200403213500977,3.1130621433258057,0.2273181527853012
1766385763956898800,14.62789892578125,9.114261627197266,3.2853455543518066,0.3900300860404968
1766385763973861000,14.644861083984376,8.791230201721191,3.239881753921509,0.550349235534668
1766385763990823700,14.66182373046875,9.533005714416504,3.414557933807373,0.7657032608985901
1766385764007786200,14.6787861328125,10.03549861907959,3.720839262008667,0.6508477330207825
1766385764024748500,14.69574853515625,9.250652313232422,3.34995174407959,0.4833501875400543
1766385764041711000,14.712711181640625,8.693124771118164,3.2518460750579834,0.04785645380616188
1766385764058673700,14.729673583984376,8.346165657043457,2.8905298709869385,-0.7992027401924133
1766385764075636200,14.74663623046875,8.726624488830566,2.2540390491485596,2.7326035499572754
1766385764092598500,14.7635986328125,9.501898765563965,2.675175666809082,1.0336993932724
1766385764109561000,14.78056103515625,11.217552185058594,3.3020951747894287,0.46899324655532837
1766385764126523600,14.797523681640625,10.322636604309082,2.7900311946868896,0.8901300430297852
1766385764143486000,14.81448583984375,8.410771369934082,2.6560330390930176,0.638883650302887
1766385764160448500,14.831448486328124,8.539983749389648,2.7517459392547607,-0.05503492057323456
1766385764177411000,14.8484111328125,8.999405860900879,2.768495798110962,-0.0933200865983963
1766385764194373400,14.865373291015626,9.468399047851562,3.136990547180176,1.0671988725662231
1766385764211336000,14.8823359375,9.1716890335083,3.3308091163635254,1.7874385118484497
1766385764228298500,14.899298583984375,9.09990406036377,2.9551360607147217,1.3830515146255493
1766385764245260800,14.9162607421875,9.753145217895508,2.830709218978882,1.301695466041565
1766385764262223400,14.933223388671875,8.74337387084961,2.7014968395233154,0.7537391185760498
1766385764279186000,14.95018603515625,9.425328254699707,2.864208698272705,0.6005984544754028
1766385764296148200,14.967148193359375,9.554540634155273,3.0556344985961914,0.42352959513664246
1766385764313110800,14.98411083984375,8.989834785461426,2.857030153274536,0.5048855543136597
1766385764330073300,15.0010732421875,9.29611587524414,2.5674986839294434,0.6460621356964111
1766385764347036000,15.018035888671875,9.401400566101074,2.7421748638153076,0.672383189201355
1766385764363998200,15.034998291015626,9.229117393493652,2.644068956375122,0.8350951075553894
1766385764380960800,15.051960693359375,9.111868858337402,2.6464617252349854,1.0791629552841187
1766385764397923300,15.06892333984375,9.257830619812012,2.63449764251709,1.0671988725662231
1766385764414885600,15.0858857421875,9.363115310668945,2.7349963188171387,0.9978070259094238
1766385764431848200,15.10284814453125,9.640682220458984,2.761317253112793,0.5407779216766357
1766385764448810500,15.119810546875,9.53061294555664,3.074777126312256,0.20578274130821228
1766385764465773000,15.13677294921875,9.126225471496582,3.0101709365844727,0.3517449200153351
1766385764482735600,15.153735595703125,8.963513374328613,3.1824541091918945,0.6628118753433228
1766385764499698000,15.170697998046874,9.087940216064453,3.153740167617798,0.7513462901115417
1766385764516660500,15.187660400390625,9.087940216064453,2.912065267562866,1.0887342691421509
1766385764533623000,15.204623046875,9.073583602905273,2.9694929122924805,1.4165509939193726
1766385764550585300,15.22158544921875,9.255437850952148,2.878565549850464,1.667797327041626
1766385764567548000,15.2385478515625,10.868200302124023,2.981456995010376,0.01196411345154047
1766385764584510500,15.255510498046876,8.583054542541504,3.2135608196258545,-0.19142581522464752
1766385764601473000,15.27247314453125,10.03310489654541,3.326023578643799,1.1940184831619263
1766385764618435300,15.289435302734375,8.042277336120605,3.091526746749878,1.5002998113632202
1766385764635398000,15.30639794921875,9.119047164916992,2.861815929412842,1.098305583000183
1766385764652360200,15.323360107421875,8.901300430297852,2.964707374572754,1.215553879737854
1766385764669322800,15.34032275390625,9.10229778289795,3.146561861038208,0.9906286001205444
1766385764686285300,15.357285400390625,9.183652877807617,3.1992039680480957,1.0719845294952393
1766385764703247600,15.37424755859375,9.152546882629395,3.187239646911621,1.0671988725662231
1766385764720210200,15.391210205078124,9.367900848388672,2.9958138465881348,0.8590233325958252
1766385764737172500,15.40817236328125,12.457035064697266,3.5150563716888428,0.8446664214134216
1766385764754135000,15.425135009765626,6.269195556640625,2.895315408706665,-0.02871387079358101
1766385764771097600,15.44209765625,10.762916564941406,2.744567632675171,0.7920243144035339
1766385764788060000,15.459059814453125,8.439485549926758,2.7972097396850586,0.3397808074951172
1766385764805022500,15.4760224609375,8.925228118896484,3.0029923915863037,0.9355936646461487
1766385764821984800,15.49298486328125,9.391828536987305,2.9766714572906494,0.6317051649093628
1766385764838947300,15.509947265625,8.762516975402832,2.775674343109131,0.607776939868927
1766385764855910000,15.526909912109375,9.415757179260254,2.5746772289276123,0.4977070987224579
1766385764872872400,15.54387255859375,9.872786521911621,2.6632115840911865,0.02632104977965355
1766385764889834800,15.560834716796874,8.654839515686035,2.4263222217559814,0.2105683982372284
1766385764906797300,15.57779736328125,9.020941734313965,2.304288148880005,0.6580262184143066
1766385764923759600,15.594759521484375,9.994820594787598,2.5124638080596924,-0.6604190468788147
1766385764940722200,15.61172216796875,9.68375301361084,2.3090739250183105,-1.2538390159606934
1766385764957684700,15.628684814453125,9.726823806762695,3.067598581314087,0.22013968229293823
1766385764974647000,15.64564697265625,8.776873588562012,3.462414264678955,0.08614161610603333
1766385764991609600,15.662609619140625,9.477970123291016,3.273381471633911,-0.004785645287483931
1766385765008572000,15.679572021484375,9.21715259552002,3.139383316040039,-0.2560320198535919
1766385765025534500,15.696534423828124,9.34157943725586,2.8498518466949463,-0.20578274130821228
1766385765042497000,15.7134970703125,9.454042434692383,2.5746772289276123,-0.21296121180057526
1766385765059459300,15.730459228515626,9.260223388671875,2.6847469806671143,-0.5599204897880554
1766385765076422000,15.747421875,9.145368576049805,2.7086751461029053,-0.6675975322723389
1766385765093384200,15.76438427734375,9.255437850952148,2.7493531703948975,-0.7106683254241943
1766385765110346800,15.7813466796875,9.265008926391602,2.713460922241211,-0.7585247755050659
1766385765127309000,15.79830908203125,9.241081237792969,2.7086751461029053,-0.8949156403541565
1766385765144271600,15.815271728515626,9.20997428894043,2.4741785526275635,-0.7992027401924133
1766385765161234200,15.832234130859375,9.446864128112793,2.4191436767578125,-0.8733802437782288
1766385765178196500,15.849196533203125,9.41336441040039,2.3641088008880615,-0.8685946464538574
1766385765195159000,15.866158935546874,9.410971641540527,2.352144718170166,-0.7728816866874695
1766385765212121300,15.883121337890625,9.190832138061523,2.287538528442383,-0.31345975399017334
1766385765229084000,15.900083984375,10.425528526306152,2.337787628173828,-0.576670229434967
1766385765246046500,15.91704638671875,9.291330337524414,2.4885356426239014,-0.4666004180908203
1766385765263008800,15.9340087890625,9.05444049835205,2.172683000564575,-0.2153540402650833
1766385765279971300,15.950971435546874,9.729216575622559,2.1439690589904785,-0.4163511395454407
1766385765296933600,15.96793359375,9.097511291503906,1.8161523342132568,-0.16271193325519562
1766385765313896200,15.984896240234375,9.784252166748047,2.0673987865448,-0.4378865361213684
1766385765330858800,16.001858642578124,9.269794464111328,2.280359983444214,-0.6628118753433228
1766385765347821000,16.018821044921875,9.56889820098877,1.9334007501602173,-0.6891329288482666
1766385765364783600,16.03578369140625,9.463613510131836,2.5531418323516846,-0.10289137065410614
1766385765381746000,16.052745849609376,9.317651748657227,3.3619158267974854,0.7920243144035339
1766385765398708500,16.06970849609375,9.135796546936035,3.3882367610931396,0.6101697683334351
1766385765415671000,16.086671142578126,9.365508079528809,2.641676187515259,0.24885354936122894
1766385765432633300,16.10363330078125,9.389435768127441,2.5220351219177246,0.7848458290100098
1766385765449596000,16.120595947265624,9.193224906921387,2.957528829574585,0.5958128571510315
1766385765466558200,16.13755810546875,8.992227554321289,3.383451223373413,0.34217363595962524
1766385765483520800,16.154520751953125,9.291330337524414,3.493520975112915,0.31345975399017334
1766385765500483000,16.171483154296876,8.870193481445312,3.397808074951172,0.08853443711996078
1766385765517445600,16.188445556640627,9.255437850952148,3.8285162448883057,0.2632105052471161
1766385765534408200,16.205408203125,9.059226989746094,3.3882367610931396,0.009571290574967861
1766385765551370500,16.22237060546875,9.016156196594238,3.1034910678863525,-0.16031911969184875
1766385765568333000,16.2393330078125,9.229117393493652,3.5461630821228027,0.031106693670153618
1766385765585295400,16.25629541015625,8.894122123718262,3.4121651649475098,0.04546362906694412
1766385765602258000,16.2732578125,9.111868858337402,3.6131622791290283,0.04785645380616188
1766385765619220200,16.29022021484375,8.855836868286133,3.864408493041992,0.16031911969184875
1766385765636182800,16.307182861328126,8.73619556427002,4.0079779624938965,0.20578274130821228
1766385765653145000,16.32414501953125,9.308079719543457,3.9912281036376953,0.5216353535652161
1766385765670107600,16.341107666015624,8.937192916870117,3.806980848312378,0.4331009089946747
1766385765687070200,16.3580703125,9.001798629760742,3.926621913909912,0.275174617767334
1766385765704032500,16.375032470703125,8.999405860900879,3.8883368968963623,0.5359922647476196
1766385765720995000,16.3919951171875,8.975478172302246,3.90987229347229,0.576670229434967
1766385765737957400,16.408957275390627,8.824729919433594,3.8668015003204346,0.5335994362831116
1766385765754920000,16.425919921875,8.839086532592773,3.809373617172241,0.5527420043945312
1766385765771882200,16.44288232421875,9.198010444641113,3.85483717918396,0.37088751792907715
1766385765788844800,16.4598447265625,9.231510162353516,4.034298896789551,0.2225325107574463
1766385765805807000,16.47680712890625,9.372686386108398,4.106083869934082,-0.040677983313798904
1766385765822769700,16.493769775390625,9.456435203552246,4.185046672821045,0.275174617767334
1766385765839732000,16.51073193359375,9.34157943725586,4.1659040451049805,-0.016749758273363113
1766385765856694500,16.527694580078126,8.671588897705078,3.996013879776001,0.16271193325519562
1766385765873657000,16.544656982421873,8.724231719970703,3.7399818897247314,-0.01196411345154047
1766385765890619400,16.561619384765624,8.444271087646484,3.5461630821228027,0.14356936514377594
1766385765907581700,16.578581787109375,10.29153060913086,4.299902439117432,0.16749759018421173
1766385765924544300,16.595544189453125,8.214560508728027,4.137190341949463,-0.004785645287483931
1766385765941506600,16.612506591796876,9.049654960632324,4.247260093688965,0.20338992774486542
1766385765958469000,16.62946923828125,8.551948547363281,4.362115859985352,-0.0526420995593071
1766385765975431400,16.646431396484374,8.676374435424805,4.182653903961182,0.31345975399017334
1766385765992394000,16.66339404296875,8.396414756774902,4.204189300537109,0.08614161610603333
1766385766009356500,16.6803564453125,8.334200859069824,3.775874137878418,0.2225325107574463
1766385766026318800,16.69731884765625,8.288737297058105,3.809373617172241,0.14117653667926788
1766385766043281400,16.714281494140625,8.37727165222168,3.845266103744507,0.20338992774486542
1766385766060243700,16.73124365234375,8.6907320022583,3.964907169342041,0.12681959569454193
1766385766077206000,16.7482060546875,8.781659126281738,4.500899314880371,0.05024927482008934
1766385766094168600,16.76516845703125,9.300901412963867,4.890929698944092,-0.14117653667926788
1766385766111131100,16.782131103515624,9.377471923828125,4.527220249176025,-0.22013968229293823
1766385766128093400,16.799093505859375,9.205188751220703,4.139583110809326,-0.09810572862625122
1766385766145056000,16.816055908203126,8.997013092041016,3.8117663860321045,0.28953152894973755
1766385766162018300,16.833018310546876,8.647661209106445,3.589233875274658,0.275174617767334
1766385766178980600,16.849980712890623,8.685946464538574,3.5222349166870117,-0.009571290574967861
1766385766195943200,16.866943115234374,8.566305160522461,3.4887354373931885,-0.2967100143432617
1766385766212905700,16.88390576171875,8.427521705627441,3.4025938510894775,0.019142581149935722
1766385766229868000,16.900867919921875,7.989634990692139,3.201596736907959,-0.30628129839897156
1766385766246830600,16.91783056640625,8.855836868286133,2.7900311946868896,-0.02392822690308094
1766385766263793000,16.93479296875,8.82233715057373,2.885744094848633,-0.2847459018230438
1766385766280755200,16.951755126953124,9.233902931213379,2.2325034141540527,0.275174617767334
1766385766297717800,16.9687177734375,12.342179298400879,3.2446675300598145,0.3158525824546814
1766385766314680300,16.985680419921874,8.511270523071289,3.964907169342041,0.47617170214653015
1766385766331642600,17.002642578125,10.382457733154297,3.4002010822296143,-0.2584248483181
1766385766348605200,17.019605224609375,10.013962745666504,4.084548473358154,0.638883650302887
1766385766365567500,17.0365673828125,7.810173034667969,3.0723843574523926,-0.5742774605751038
1766385766382529800,17.05352978515625,9.631111145019531,2.0673987865448,0.4546363055706024
1766385766399492400,17.070492431640623,9.107083320617676,2.1918256282806396,0.349352091550827
1766385766416454700,17.08745458984375,8.630910873413086,2.172683000564575,-0.1459621787071228
1766385766433417200,17.104417236328125,9.528220176696777,2.612962245941162,-0.2392822653055191
1766385766450379800,17.1213798828125,9.53061294555664,3.06999135017395,-0.2560320198535919
1766385766467342000,17.138342041015626,11.035697937011719,2.7804598808288574,-3.249453067779541
1766385766484304400,17.155304443359373,7.439285755157471,3.0388846397399902,-0.5790630578994751
1766385766501267000,17.172266845703124,12.205788612365723,2.9718856811523438,-1.0193424224853516
1766385766518229200,17.189229248046875,6.446264266967773,1.9262222051620483,-0.5910272002220154
1766385766535191800,17.20619189453125,11.593225479125977,2.196611166000366,0.016749758273363113
1766385766552154000,17.223154052734376,7.372286796569824,2.0673987865448,-0.26560330390930176
1766385766569116700,17.24011669921875,10.514062881469727,2.5746772289276123,-0.33499518036842346
1766385766586079000,17.257078857421874,8.72183895111084,2.801995277404785,-0.04307080805301666
1766385766603041500,17.27404150390625,9.966106414794922,2.7828526496887207,-0.14117653667926788
1766385766620003800,17.29100390625,8.982656478881836,2.5363919734954834,0.17706887423992157
1766385766636966100,17.307966064453126,9.578469276428223,2.3497519493103027,-0.07417750358581543
1766385766653928700,17.3249287109375,8.987442016601562,1.6055840253829956,0.07417750358581543
1766385766670891000,17.34189111328125,11.045269012451172,1.8161523342132568,-0.05742774158716202
1766385766687853600,17.358853515625,10.083354949951172,3.1728827953338623,0.11006984114646912
1766385766704815900,17.37581591796875,7.750352382659912,2.8498518466949463,-0.09092725813388824
1766385766721778400,17.3927783203125,10.284351348876953,2.6225335597991943,-0.2847459018230438
1766385766738740700,17.40974072265625,8.37727165222168,2.076970100402832,0.009571290574967861
1766385766755703300,17.426703369140625,9.241081237792969,1.923829436302185,0.062213387340307236
1766385766772665600,17.44366552734375,8.80798053741455,2.1990039348602295,-0.08853443711996078
1766385766789628200,17.460628173828123,9.810572624206543,2.641676187515259,-0.04785645380616188
1766385766806590500,17.477590576171874,9.425328254699707,2.7828526496887207,-0.14117653667926788
1766385766823553000,17.494552978515625,9.619147300720215,2.5842485427856445,-0.10767702013254166
1766385766840515300,17.511515380859375,9.600004196166992,2.242074728012085,-0.05503492057323456
1766385766857477600,17.5284775390625,9.645467758178711,2.0338993072509766,-0.02632104977965355
1766385766874440200,17.545440185546877,9.025727272033691,1.978864312171936,-0.02871387079358101
1766385766891402500,17.562402587890624,9.401400566101074,1.9573289155960083,0.08614161610603333
1766385766908365000,17.579364990234374,9.34875774383545,2.7900311946868896,0.8039883971214294
1766385766925327400,17.596327392578125,9.243474006652832,2.579462766647339,0.4211367964744568
1766385766942289700,17.61328955078125,9.542576789855957,3.2039895057678223,-0.37088751792907715
1766385766959252200,17.630252197265627,9.511469841003418,2.9455647468566895,-0.06699903309345245
1766385766976214800,17.64721484375,10.045069694519043,2.8977081775665283,-0.5718846321105957
1766385766993177000,17.664177001953124,9.812965393066406,2.9312076568603516,-0.3397808074951172
1766385767010139400,17.681139404296875,8.135597229003906,2.8929226398468018,-0.31345975399017334
1766385767027102000,17.69810205078125,9.422935485839844,3.022135019302368,0.16271193325519562
1766385767044064300,17.715064208984376,8.8438720703125,3.139383316040039,-0.019142581149935722
1766385767061026800,17.73202685546875,8.94676399230957,3.098705291748047,-0.12921242415905
1766385767077989000,17.748989013671874,9.238688468933105,3.1657042503356934,0.08614161610603333
1766385767094951400,17.765951416015625,9.111868858337402,3.1752755641937256,0.17946170270442963
1766385767111914000,17.7829140625,9.279366493225098,3.1824541091918945,0.07896314561367035
1766385767128876300,17.799876220703126,9.284152030944824,3.25663161277771,0.019142581149935722
1766385767145838800,17.8168388671875,9.281759262084961,3.2614171504974365,0.035892341285943985
1766385767162801200,17.83380126953125,9.119047164916992,3.335594654083252,0.06939185410737991
1766385767179763700,17.850763671875,9.104690551757812,3.428914785385132,-0.07896314561367035
1766385767196726000,17.86772607421875,8.97787094116211,3.4791641235351562,-0.040677983313798904
1766385767213688300,17.884688232421876,8.96829891204834,3.586841106414795,0.035892341285943985
1766385767230651000,17.90165087890625,9.008976936340332,3.675375461578369,0.05024927482008934
1766385767247613400,17.918613525390626,9.1716890335083,3.541377544403076,0.019142581149935722
1766385767264575700,17.93557568359375,9.126225471496582,3.572484254837036,0.04546362906694412
1766385767281538000,17.9525380859375,9.032905578613281,3.6227335929870605,0.07417750358581543
1766385767298500600,17.96950048828125,9.011369705200195,3.730410575866699,0.12921242415905
1766385767315463000,17.986462890625,8.975478172302246,3.735196113586426,0.1339980661869049
1766385767332425200,18.00342529296875,8.874979019165039,3.730410575866699,0.02392822690308094
1766385767349387800,18.0203876953125,8.918049812316895,3.7639100551605225,0.12681959569454193
1766385767366350000,18.03735009765625,8.889336585998535,3.7710886001586914,0.06939185410737991
1766385767383312600,18.054312744140624,8.937192916870117,3.8524444103240967,0.0526420995593071
1766385767400275000,18.07127490234375,8.484949111938477,3.620340585708618,-0.059820566326379776
1766385767417237500,18.088237548828126,9.119047164916992,3.5772697925567627,0.38285163044929504
1766385767434199800,18.10519970703125,10.801201820373535,4.063013076782227,0.059820566326379776
1766385767451162000,18.122162109375,7.3292155265808105,3.589233875274658,0.1746760457754135
1766385767468124700,18.139124755859374,10.439885139465332,3.8356947898864746,-0.07657032459974289
1766385767485087000,18.1560869140625,8.063812255859375,3.5916268825531006,0.07657032459974289
1766385767502049500,18.173049560546875,9.336793899536133,3.4265220165252686,0.25363919138908386
1766385767519011800,18.19001171875,8.446663856506348,3.6323046684265137,0.07417750358581543
1766385767535974100,18.20697412109375,9.324830055236816,3.641875982284546,0.11006984114646912
1766385767552936700,18.223936767578124,8.650053977966309,3.7639100551605225,-0.07657032459974289
1766385767569899000,18.24089892578125,9.154939651489258,3.902693748474121,0.04307080805301666
1766385767586861600,18.257861572265625,9.229117393493652,4.113262176513672,0.031106693670153618
1766385767603823900,18.274823974609376,8.886942863464355,4.170690059661865,-0.11964113265275955
1766385767620786200,18.2917861328125,8.827122688293457,3.696911096572876,-0.04307080805301666
1766385767637748700,18.308748779296874,7.83410120010376,3.7184464931488037,0.035892341285943985
1766385767654711000,18.3257109375,8.087740898132324,3.2518460750579834,0.4019941985607147
1766385767671673600,18.342673583984375,12.031112670898438,4.266402721405029,-0.49292147159576416
1766385767688636000,18.359635986328126,6.836294174194336,3.8835511207580566,0.064606212079525
1766385767705598200,18.37659814453125,9.688538551330566,3.5844483375549316,0.40677985548973083
1766385767722560800,18.393560791015624,9.05444049835205,3.129812002182007,0
1766385767739523000,18.410523193359374,8.937192916870117,2.737389087677002,0.22492532432079315
1766385767756485600,18.427485595703125,9.28893756866455,2.8211379051208496,0.28953152894973755
1766385767773448000,18.444447998046876,9.238688468933105,2.667997360229492,0
1766385767790410200,18.46141015625,9.339186668395996,2.7517459392547607,0.07178468257188797
1766385767807372800,18.478372802734373,9.339186668395996,3.266202926635742,0.02153540402650833
1766385767824335000,18.495335205078124,9.028120040893555,3.5844483375549316,-0.02632104977965355
1766385767841297400,18.51229736328125,8.757730484008789,3.81655216217041,0.062213387340307236
1766385767858260000,18.529260009765625,8.786444664001465,2.1607189178466797,-0.15314064919948578
1766385767875222300,18.54622216796875,12.813565254211426,3.2853455543518066,-0.014356935396790504
1766385767892184800,18.563184814453123,5.338387489318848,2.203789710998535,0.09092725813388824
1766385767909147100,18.580147216796874,12.390035629272461,2.6727828979492188,-0.12203395366668701
1766385767926109700,18.597109619140625,7.365108013153076,2.344966173171997,-0.38285163044929504
1766385767943072000,18.614072021484375,10.473384857177734,2.510071039199829,0.13639089465141296
1766385767960034300,18.631034423828126,8.903693199157715,2.313859462738037,-0.14117653667926788
1766385767976996900,18.647996826171877,9.736394882202148,2.2133610248565674,0.01196411345154047
1766385767993959200,18.664959228515624,9.657432556152344,2.2396819591522217,0.15074782073497772
1766385768010921500,18.68192138671875,9.631111145019531,2.287538528442383,-0.04546362906694412
1766385768027884000,18.698884033203125,9.439684867858887,2.352144718170166,0.014356935396790504
1766385768044846300,18.715846435546876,9.516255378723145,2.3330020904541016,0.0023928226437419653
1766385768061808600,18.73280859375,9.741181373596191,2.3186452388763428,-0.07657032459974289
1766385768078771200,18.749771240234374,9.080761909484863,2.2683959007263184,0.04307080805301666
1766385768095733500,18.7667333984375,9.43489933013916,2.163111686706543,-0.02153540402650833
1766385768112695800,18.78369580078125,9.410971641540527,1.8640087842941284,0.12442677468061447
1766385768129658400,18.800658447265626,9.487542152404785,2.03629207611084,0.05024927482008934
1766385768146620700,18.81762060546875,9.501898765563965,2.1535403728485107,0.09810572862625122
1766385768163583200,18.834583251953124,9.698110580444336,2.416750907897949,0.16510476171970367
1766385768180545500,18.851545654296874,9.425328254699707,2.510071039199829,0.040677983313798904
1766385768197507800,18.8685078125,9.410971641540527,2.5292134284973145,0.21296121180057526
1766385768214470400,18.885470458984376,9.45164966583252,2.5387847423553467,0.2991028428077698
1766385768231432700,18.9024326171875,9.147761344909668,2.56510591506958,0.2727817893028259
1766385768248395000,18.91939501953125,9.08554744720459,2.2923240661621094,0.2273181527853012
1766385768265357600,18.936357666015624,9.370293617248535,2.455035924911499,0.2560320198535919
1766385768282320000,18.95331982421875,9.09990406036377,2.407179594039917,-0.04785645380616188
1766385768299282200,18.9702822265625,8.796015739440918,2.644068956375122,0.17946170270442963
1766385768316244700,18.98724462890625,10.346565246582031,2.007578134536743,-0.05024927482008934
1766385768333207000,19.00420703125,9.7938232421875,1.674975872039795,0.4331009089946747
1766385768350169300,19.02116943359375,10.112068176269531,2.2372891902923584,-0.05503492057323456
1766385768367132000,19.0381318359375,8.760123252868652,2.359323024749756,-0.7106683254241943
1766385768384094200,19.05509423828125,9.774680137634277,2.4287149906158447,-1.1389836072921753
1766385768401056800,19.072056884765626,11.076375961303711,3.2446675300598145,-0.1052841991186142
1766385768418019000,19.08901904296875,7.293323516845703,2.8689942359924316,0.3158525824546814
1766385768434981400,19.1059814453125,9.896714210510254,2.761317253112793,0.1579262912273407
1766385768451944000,19.12294384765625,8.884550094604492,2.586641311645508,0.04546362906694412
1766385768468906200,19.13990625,9.028120040893555,2.4119651317596436,0.2991028428077698
1766385768485868500,19.15686865234375,9.10229778289795,2.620140790939331,-0.15314064919948578
1766385768502830800,19.173830810546875,9.525827407836914,3.0029923915863037,0.007178467698395252
1766385768519793400,19.19079345703125,9.044869422912598,3.3332018852233887,-0.1052841991186142
1766385768536755700,19.207755615234376,9.54496955871582,3.431307554244995,0.16271193325519562
1766385768553718000,19.224718017578127,8.987442016601562,3.3547372817993164,0.02871387079358101
1766385768570680600,19.2416806640625,9.265008926391602,3.1441688537597656,0.27038896083831787
1766385768587643000,19.258642822265625,9.028120040893555,2.9838497638702393,0.349352091550827
1766385768604605200,19.275605224609375,9.241081237792969,2.943171739578247,0.1866401731967926
1766385768621567700,19.292567626953126,9.253045082092285,2.9718856811523438,0.18903298676013947
1766385768638530000,19.309530029296877,9.190832138061523,3.1130621433258057,0.2584248483181
1766385768655492600,19.32649267578125,9.154939651489258,3.4408788681030273,0.20099709928035736
1766385768672455000,19.343454833984374,9.10229778289795,3.7160534858703613,0.1986042857170105
1766385768689417200,19.360417236328125,9.044869422912598,3.7567315101623535,0.038285162299871445
1766385768706379500,19.377379638671876,9.025727272033691,3.730410575866699,0.15314064919948578
1766385768723342000,19.394342041015626,8.96112060546875,3.6705899238586426,0.040677983313798904
1766385768740304400,19.411304443359374,8.82951545715332,3.6705899238586426,0.03349951654672623
1766385768757266700,19.4282666015625,9.43489933013916,3.91705060005188,0.15553347766399384
1766385768774229200,19.445229248046875,8.726624488830566,3.950550079345703,0.16271193325519562
1766385768791191600,19.462191650390626,9.052047729492188,4.029513359069824,-0.14356936514377594
1766385768808153900,19.47915380859375,9.262616157531738,3.8979079723358154,0.08614161610603333
1766385768825116200,19.4961162109375,9.07119083404541,4.07258415222168,-0.02153540402650833
1766385768842078700,19.51307861328125,9.166903495788574,4.130012035369873,-0.1818545162677765
1766385768859041000,19.530041015625,8.755337715148926,4.118047714233398,0.24646073579788208
1766385768876003300,19.54700341796875,8.812766075134277,4.309473514556885,-0.3445664644241333
1766385768892966000,19.5639658203125,8.62612533569336,4.108476638793945,-0.17228323221206665
1766385768909928200,19.58092822265625,8.37009334564209,3.91705060005188,0.031106693670153618
1766385768926890500,19.597890380859376,8.561519622802734,4.027120590209961,-0.059820566326379776
1766385768943852800,19.614852783203126,7.211967468261719,3.649054527282715,0.019142581149935722
1766385768960815400,19.6318154296875,10.001998901367188,4.108476638793945,0.7489534616470337
1766385768977777700,19.648777587890624,10.494919776916504,4.1730828285217285,-1.0121639966964722
1766385768994740000,19.665739990234375,7.4464640617370605,4.603790760040283,-0.380458801984787
1766385769011702500,19.68270263671875,9.688538551330566,4.488935470581055,0.23449662327766418
1766385769028664800,19.699664794921876,8.312665939331055,4.000799655914307,0.32303106784820557
1766385769045627400,19.71662744140625,9.987641334533691,1.710868239402771,-0.16271193325519562
1766385769062589700,19.733589599609374,15.357135772705078,5.101497650146484,0.13878370821475983
1766385769079552000,19.750552001953125,4.122833251953125,4.278367042541504,-0.23210379481315613
1766385769096514300,19.767514404296875,2.837887763977051,2.7278177738189697,-0.8805587291717529
1766385769113476900,19.784476806640626,10.937592506408691,2.4765713214874268,0.607776939868927
1766385769130439200,19.801439208984377,7.3052873611450195,1.5840486288070679,1.490728497505188
1766385769147401500,19.8184013671875,9.449256896972656,2.0817556381225586,0.8805587291717529
1766385769164363800,19.83536376953125,9.4061861038208,2.7349963188171387,-0.15553347766399384
1766385769181326300,19.852326416015625,12.80160140991211,4.677968502044678,-1.2299108505249023
1766385769198288600,19.86928857421875,6.120840549468994,4.005585193634033,-0.6029912829399109
1766385769215251000,19.8862509765625,12.256037712097168,3.893122434616089,-0.33020952343940735
1766385769232213200,19.903213134765625,8.537590980529785,2.7397818565368652,-0.26560330390930176
1766385769249175800,19.92017578125,9.023334503173828,1.9453648328781128,0.2632105052471161
1766385769266138000,19.93713818359375,9.592825889587402,1.856830358505249,0.16510476171970367
1766385769283100400,19.954100341796874,7.913064479827881,2.132004976272583,-0.10767702013254166
1766385769300062700,19.971062744140625,12.169896125793457,2.3976082801818848,-0.3038884699344635
1766385769317025300,19.988025390625,10.114460945129395,2.3617160320281982,-0.5886343717575073
1766385769333987600,20.004987548828126,8.855836868286133,2.9790642261505127,-0.9954141974449158
1766385769350950000,20.021949951171877,13.433306694030762,3.2853455543518066,-0.35413774847984314
1766385769367912200,20.038912109375,8.38684368133545,3.1489546298980713,-0.28953152894973755
1766385769384874800,20.055874755859374,6.790830612182617,1.797009825706482,-0.10049854964017868
1766385769401837000,20.072837158203125,10.152746200561523,1.3519448041915894,0.46899324655532837
1766385769418799400,20.08979931640625,8.7505521774292,1.3615161180496216,-0.3278166949748993
1766385769435761700,20.10676171875,8.260024070739746,1.7228323221206665,-0.14117653667926788
1766385769452724200,20.12372412109375,9.978070259094238,2.1104695796966553,0.031106693670153618
1766385769469686500,20.1406865234375,9.468399047851562,2.823530673980713,-0.03349951654672623
1766385769486648800,20.15764892578125,10.322636604309082,2.864208698272705,-0.064606212079525
1766385769503611100,20.174611083984374,9.779465675354004,2.7014968395233154,-0.18903298676013947
1766385769520573400,20.191573486328124,10.315458297729492,2.462214469909668,0.11964113265275955
1766385769537536000,20.208535888671875,8.482556343078613,2.122433662414551,-0.19142581522464752
1766385769554498300,20.225498291015626,10.006784439086914,2.3162522315979004,-0.2273181527853012
1766385769571460600,20.242460693359376,8.382058143615723,2.0506489276885986,-0.09092725813388824
1766385769588423000,20.2594228515625,9.851250648498535,2.335394859313965,-0.09092725813388824
1766385769605385500,20.276385498046874,8.72183895111084,2.4430718421936035,-0.13639089465141296
1766385769622347800,20.29334765625,10.269994735717773,2.423929452896118,-0.17946170270442963
1766385769639310000,20.31031005859375,9.604789733886719,2.510071039199829,-0.2225325107574463
1766385769656272400,20.3272724609375,9.889535903930664,2.194218397140503,-0.2967100143432617
1766385769673234700,20.344234619140625,9.068798065185547,1.9764715433120728,-0.23688943684101105
1766385769690197200,20.361197265625,9.57607650756836,1.9692929983139038,-0.009571290574967861
1766385769707159600,20.37815966796875,9.20997428894043,2.0171494483947754,-0.28953152894973755
1766385769724121900,20.395121826171874,8.906085968017578,2.148754835128784,-0.12442677468061447
1766385769741084200,20.412084228515624,9.908679008483887,2.122433662414551,0.19381862878799438
1766385769758046700,20.429046630859375,9.28893756866455,2.1750757694244385,-0.10289137065410614
1766385769775009000,20.446009033203126,9.731609344482422,2.1990039348602295,-0.1698904037475586
1766385769791971300,20.462971435546876,9.291330337524414,2.170290231704712,-0.10289137065410614
1766385769808933600,20.47993359375,9.671789169311523,2.124826431274414,-0.09810572862625122
1766385769825896000,20.49689599609375,9.281759262084961,2.4526431560516357,0.19381862878799438
1766385769842858500,20.5138583984375,9.169296264648438,2.50289249420166,0.05742774158716202
1766385769859820800,20.53082080078125,9.377471923828125,2.7110681533813477,-0.03349951654672623
1766385769876783000,20.547783203125,9.346364974975586,2.555534601211548,0.09810572862625122
1766385769893745400,20.564745361328125,9.21715259552002,2.541177749633789,0.20578274130821228
1766385769910707700,20.581707763671876,9.396614074707031,2.651247501373291,-0.03349951654672623
1766385769927670300,20.598670166015626,9.367900848388672,2.6871397495269775,0.10049854964017868
1766385769944632600,20.615632568359374,9.463613510131836,2.878565549850464,-0.06939185410737991
1766385769961595000,20.632594970703124,9.152546882629395,2.861815929412842,-0.14356936514377594
1766385769978557200,20.64955712890625,9.30329418182373,2.837887763977051,-0.014356935396790504
1766385769995519500,20.66651953125,9.265008926391602,2.9072794914245605,0.016749758273363113
1766385770012482000,20.68348193359375,8.973084449768066,2.9216363430023193,-0.06939185410737991
1766385770029444400,20.7004443359375,9.343972206115723,3.0269205570220947,-0.02871387079358101
1766385770046406700,20.71740673828125,9.056833267211914,3.081955671310425,0
1766385770063369000,20.734368896484376,9.200403213500977,2.988635540008545,-0.019142581149935722
1766385770080331300,20.751331298828124,9.293723106384277,2.988635540008545,-0.04785645380616188
1766385770097293600,20.76829345703125,9.233902931213379,3.0556344985961914,0.01196411345154047
1766385770114256100,20.785256103515625,9.10229778289795,3.053241729736328,-0.007178467698395252
1766385770131218400,20.802218505859376,9.432506561279297,3.13220477104187,-0.059820566326379776
1766385770148180700,20.8191806640625,8.82951545715332,2.9790642261505127,-0.064606212079525
1766385770165143000,20.83614306640625,9.439684867858887,3.084348440170288,-0.11006984114646912
1766385770182105300,20.853105224609376,9.111868858337402,3.0077781677246094,-0.08135596662759781
1766385770199068000,20.87006787109375,9.355937004089355,2.9383862018585205,-0.13639089465141296
1766385770216030200,20.8870302734375,9.365508079528809,2.950350284576416,-0.16510476171970367
1766385770232992300,20.9039921875,8.944371223449707,2.8426733016967773,-0.01196411345154047
1766385770249954800,20.920954833984375,9.643074989318848,2.833101987838745,-0.11006984114646912
1766385770266917000,20.937917236328126,8.93958568572998,2.6943182945251465,-0.08853443711996078
1766385770283879400,20.95487939453125,9.44447135925293,2.7661030292510986,0.01196411345154047
1766385770300842000,20.971842041015623,9.250652313232422,2.847458839416504,0.07178468257188797
1766385770317804000,20.988803955078126,9.33440113067627,2.8522446155548096,0.11485548317432404
1766385770334766300,21.005766357421876,9.31047248840332,2.7565317153930664,-0.02392822690308094
1766385770351729000,21.02272900390625,9.353543281555176,2.50289249420166,0.11964113265275955
1766385770368691200,21.039691162109374,9.43489933013916,2.6081767082214355,0.07657032459974289
1766385770385653500,21.056653564453125,9.279366493225098,2.6177480220794678,0.08374879509210587
1766385770402615800,21.07361572265625,9.308079719543457,2.682354211807251,0.02392822690308094
1766385770419578000,21.090578125,9.501898765563965,2.6321048736572266,0.04546362906694412
1766385770436540400,21.10754052734375,9.181260108947754,2.557927370071411,0.0023928226437419653
1766385770453503000,21.1245029296875,9.499505996704102,2.531606435775757,0.04546362906694412
1766385770470465300,21.14146533203125,9.367900848388672,2.5052852630615234,-0.01196411345154047
1766385770487427600,21.158427490234374,9.360722541809082,2.5196423530578613,0.062213387340307236
1766385770504390000,21.175389892578124,9.343972206115723,2.531606435775757,0.11246266216039658
1766385770521352200,21.192352294921875,9.468399047851562,2.548356056213379,0.12921242415905
1766385770538314500,21.209314453125,9.32004451751709,2.5220351219177246,0.14117653667926788
1766385770555276800,21.22627685546875,9.410971641540527,2.53399920463562,0.14356936514377594
1766385770572239000,21.243239013671875,9.32004451751709,2.5220351219177246,0.17228323221206665
1766385770589201700,21.26020166015625,9.363115310668945,2.4885356426239014,0.12921242415905
1766385770606164000,21.2771640625,9.403793334960938,2.612962245941162,-0.13878370821475983
1766385770623126300,21.294126220703124,9.389435768127441,2.68953275680542,-0.21774685382843018
1766385770640088600,21.311088623046874,9.28893756866455,2.644068956375122,-0.12203395366668701
1766385770657051000,21.32805078125,9.353543281555176,2.651247501373291,-0.1579262912273407
1766385770674013200,21.34501318359375,9.281759262084961,2.6775684356689453,-0.15314064919948578
1766385770690975500,21.3619755859375,9.363115310668945,2.7493531703948975,-0.10289137065410614
1766385770707937800,21.378937744140625,9.28893756866455,2.754138946533203,-0.10289137065410614
1766385770724900000,21.395900146484376,9.308079719543457,2.7493531703948975,-0.08374879509210587
1766385770741862400,21.4128623046875,9.28893756866455,2.809173822402954,-0.016749758273363113
1766385770758825000,21.429824951171874,9.29611587524414,2.861815929412842,-0.01196411345154047
1766385770775787300,21.446787353515624,9.253045082092285,2.8977081775665283,0.02632104977965355
1766385770792749600,21.46374951171875,9.214759826660156,2.9623143672943115,0.11724831163883209
1766385770809711900,21.4807119140625,9.248259544372559,3.014956474304199,0.12921242415905
1766385770826674200,21.497674072265625,9.157332420349121,3.014956474304199,0.14356936514377594
1766385770843636500,21.514636474609375,9.248259544372559,2.9958138465881348,0.1339980661869049
1766385770860598800,21.531598876953126,9.243474006652832,3.0029923915863037,0.10767702013254166
1766385770877561000,21.54856103515625,9.233902931213379,3.0652058124542236,0.08614161610603333
1766385770894523400,21.5655234375,9.243474006652832,3.1178479194641113,0.02392822690308094
1766385770911485700,21.582485595703126,9.166903495788574,3.0939197540283203,-0.01196411345154047
1766385770928448000,21.599447998046877,9.238688468933105,3.043670415878296,-0.062213387340307236
1766385770945410300,21.616410400390624,9.174081802368164,3.036491870880127,-0.10289137065410614
1766385770962372600,21.63337255859375,9.231510162353516,3.046063184738159,-0.1866401731967926
1766385770979335200,21.650335205078125,9.162117958068848,3.0652058124542236,-0.1746760457754135
1766385770996297500,21.66729736328125,9.212367057800293,3.081955671310425,-0.16031911969184875
1766385771013259800,21.684259765625,9.19561767578125,3.0628130435943604,-0.16749759018421173
1766385771030222000,21.70122216796875,9.212367057800293,3.0891339778900146,-0.20099709928035736
1766385771047184400,21.718184326171876,9.221938133239746,3.1417760848999023,-0.16271193325519562
1766385771064146700,21.735146728515623,9.169296264648438,3.1489546298980713,-0.11006984114646912
1766385771081109000,21.75210888671875,9.17886734008789,3.1752755641937256,-0.09092725813388824
1766385771098071300,21.7690712890625,9.131011009216309,3.1824541091918945,-0.02871387079358101
1766385771115033600,21.78603369140625,9.200403213500977,3.2374889850616455,-0.019142581149935722
1766385771131996000,21.802995849609374,9.164510726928711,3.2374889850616455,0.0023928226437419653
1766385771148958200,21.819958251953125,9.162117958068848,3.2542388439178467,-0.007178467698395252
1766385771165920500,21.83692041015625,9.186046600341797,3.2614171504974365,0.02153540402650833
1766385771182882800,21.8538828125,9.133403778076172,3.2781670093536377,-0.009571290574967861
